{
  "framework": "LangGraph",
  "process": "StateGraph (deterministic)",
  "run_timestamp": "2026-06-25 15:48:11",
  "sas_folder": "./data/sample_sas",
  "elapsed_sec": 434.2,
  "node_timings": {
    "1\ufe0f\u20e3  Dependency Planner": 0.0,
    "2\ufe0f\u20e3  RAG Translator": 434.14,
    "3\ufe0f\u20e3  Syntax Validator": 0.02,
    "4\ufe0f\u20e3  Confidence Scorer": 0.0,
    "5\ufe0f\u20e3  Report Generator": 0.01
  },
  "file_count": 8,
  "routing_summary": {
    "advs.sas": "REVIEW_REQUIRED",
    "adtte.sas": "REVIEW_REQUIRED",
    "adae_merge.sas": "REVIEW_REQUIRED",
    "adlb_baseline.sas": "REJECTED",
    "adcm.sas": "REVIEW_REQUIRED",
    "t_ae_summ.sas": "REVIEW_REQUIRED",
    "adsl.sas": "REVIEW_REQUIRED",
    "sdtm_lb.sas": "REJECTED"
  },
  "translations": [
    {
      "filename": "advs.sas",
      "cosine_score": 0.6212,
      "sas_loc": 88,
      "py_loc": 228,
      "translation_time": 56.1,
      "validation_status": "valid",
      "correction_attempts": 0,
      "routing_decision": "REVIEW_REQUIRED",
      "routing_reason": "Medium cosine similarity (0.6212) \u2014 translation likely correct but requires reviewer confirmation",
      "python_code": "# Translated from: advs.sas | ClinTranslate v4 Agentic\n# Study    : BMN-999-001\n# Purpose  : Create ADVS - Vital Signs Analysis Dataset\n# Source   : Clinical Data Engineering\n# Created  : 2024-01-20\n# Translator Notes:\n#   - SAS libname references replaced with explicit file-path constants\n#   - SAS retain/by group logic implemented via groupby + cumulative patterns\n#   - SAS date informat yymmdd10. replaced with pd.to_datetime\n#   - All CDISC variable names preserved exactly per ADaM spec\n#   - 21 CFR Part 11: no silent modifications \u2014 all transformations are explicit\n#   - PROC MEANS summary block preserved as grouped aggregation\n\nimport pandas as pd\nimport numpy as np\nimport os\n\n# \u2500\u2500 Path configuration (replaces SAS libname declarations) \u2500\u2500\nADAM_PATH = \"/data/bmn999/adam\"\nSDTM_PATH = \"/data/bmn999/sdtm\"\n\n# \u2500\u2500 Load source datasets (replaces libname.dataset references) \u2500\u2500\nvs   = pd.read_sas(os.path.join(SDTM_PATH, \"vs.sas7bdat\"), encoding=\"utf-8\")\nadsl = pd.read_sas(os.path.join(ADAM_PATH, \"adsl.sas7bdat\"), encoding=\"utf-8\")\n\n# Normalize column names to uppercase to match SAS convention exactly\nvs.columns   = vs.columns.str.upper()\nadsl.columns = adsl.columns.str.upper()\n\n# ============================================================\n# Step 1: Sort VS by subject and timepoint\n# SAS: proc sort data=sdtm.vs out=vs_sorted;\n#          by usubjid vstestcd visitnum vsdtc;\n# ============================================================\nvs_sorted = (\n    vs\n    .sort_values([\"USUBJID\", \"VSTESTCD\", \"VISITNUM\", \"VSDTC\"])\n    .reset_index(drop=True)\n)\n\n# ============================================================\n# Step 2: Merge with ADSL for treatment dates\n# SAS: merge vs_sorted (in=inVS) adam.adsl (in=inADSL ...);\n#          by usubjid;\n#          if inVS and inADSL;   <- inner join on USUBJID\n# ============================================================\n\n# Keep only required ADSL columns (mirrors SAS keep= dataset option)\nadsl_keep = adsl[[\"USUBJID\", \"TRTSDT\", \"SAFFL\"]].copy()\n\n# Inner join replicates \"if inVS and inADSL\" guard\nadvs_raw = pd.merge(\n    vs_sorted,\n    adsl_keep,\n    on=\"USUBJID\",\n    how=\"inner\"          # SAS: if inVS and inADSL\n)\n\n# \u2500\u2500 Analysis date derivation \u2500\u2500\n# SAS: vsdt = input(vsdtc, yymmdd10.);\nadvs_raw[\"VSDT\"] = pd.to_datetime(\n    advs_raw[\"VSDTC\"], format=\"%Y-%m-%d\", errors=\"coerce\"\n)\n\n# SAS: TRTSDT is a SAS numeric date; convert to Timestamp for arithmetic\n# SAS epoch is 1960-01-01; pd.read_sas returns numeric SAS dates as floats\nadvs_raw[\"TRTSDT\"] = pd.to_datetime(\n    advs_raw[\"TRTSDT\"], unit=\"D\", origin=\"1960-01-01\", errors=\"coerce\"\n)\n\n# SAS: if trtsdt ne . and vsdt ne . then\n#          ady = vsdt - trtsdt + (vsdt >= trtsdt);\n# The (+1) adjustment replicates SAS convention: on-dose day = 1, not 0\ndef derive_ady(row):\n    # 21 CFR Part 11: explicit guard \u2014 no silent imputation when dates missing\n    if pd.isna(row[\"TRTSDT\"]) or pd.isna(row[\"VSDT\"]):\n        return np.nan\n    delta = (row[\"VSDT\"] - row[\"TRTSDT\"]).days\n    # SAS adds 1 for post-dose days to create a 1-based index (no day 0)\n    return delta + (1 if row[\"VSDT\"] >= row[\"TRTSDT\"] else 0)\n\nadvs_raw[\"ADY\"] = advs_raw.apply(derive_ady, axis=1)\n\n# ============================================================\n# Step 3: Baseline derivation\n# SAS: proc sort + data step with retain + first.vstestcd logic\n# Baseline = last non-missing VSSTRESN value on or before first dose date\n# ============================================================\nadvs_raw = (\n    advs_raw\n    .sort_values([\"USUBJID\", \"VSTESTCD\", \"VSDT\"])\n    .reset_index(drop=True)\n)\n\n# Flag baseline candidates: on or before first dose AND value present\n# SAS: if vsdt <= trtsdt and vsstresn ne . then ablfl = 'Y'\nadvs_raw[\"ABLFL\"] = np.where(\n    (advs_raw[\"VSDT\"] <= advs_raw[\"TRTSDT\"]) & (advs_raw[\"VSSTRESN\"].notna()),\n    \"Y\",\n    \"\"\n)\n\n# Derive BASE = last qualifying baseline value per subject/parameter\n# SAS retain + first.vstestcd pattern: take last row where ABLFL='Y'\nbaseline_vals = (\n    advs_raw[advs_raw[\"ABLFL\"] == \"Y\"]\n    .groupby([\"USUBJID\", \"VSTESTCD\"], sort=False)\n    [\"VSSTRESN\"]\n    .last()                          # last value <= trtsdt (data already sorted)\n    .reset_index()\n    .rename(columns={\"VSSTRESN\": \"BASE\"})\n)\n\nadvs_base = pd.merge(\n    advs_raw,\n    baseline_vals,\n    on=[\"USUBJID\", \"VSTESTCD\"],\n    how=\"left\"                       # retain all VS records; BASE=NaN if no baseline\n)\n\n# Variable labels (stored as DataFrame attrs for downstream audit trail)\n# SAS: label base='Baseline Value' ablfl='Baseline Record Flag' ady='Analysis Relative Day'\nadvs_base.attrs[\"variable_labels\"] = {\n    \"BASE\":  \"Baseline Value\",\n    \"ABLFL\": \"Baseline Record Flag\",\n    \"ADY\":   \"Analysis Relative Day\",\n}\n\n# ============================================================\n# Step 4: Change from baseline + derived flags\n# SAS: data adam.advs; set advs_base; retain base_val;\n#       propagate BASE to all records, compute CHG/PCHG\n# ============================================================\n\n# SAS retain base_val + if ablfl='Y' then base_val=base\n# Already embedded in BASE column via merge above (same semantics)\n# Rename for clarity; BASE carries the propagated value for all rows\nadvs_base = advs_base.rename(columns={\"BASE\": \"BASE_VAL\"})\n\n# \u2500\u2500 CHG: change from baseline \u2500\u2500\n# SAS: chg = vsstresn - base_val;\nadvs_base[\"CHG\"] = np.where(\n    advs_base[\"BASE_VAL\"].notna() & advs_base[\"VSSTRESN\"].notna(),\n    advs_base[\"VSSTRESN\"] - advs_base[\"BASE_VAL\"],\n    np.nan\n)\n\n# \u2500\u2500 PCHG: percent change from baseline \u2500\u2500\n# SAS: if base_val ne 0 then pchg = (chg / base_val) * 100; else pchg = .;\nadvs_base[\"PCHG\"] = np.where(\n    advs_base[\"BASE_VAL\"].notna()\n    & advs_base[\"VSSTRESN\"].notna()\n    & (advs_base[\"BASE_VAL\"] != 0),\n    (advs_base[\"CHG\"] / advs_base[\"BASE_VAL\"]) * 100,\n    np.nan                           # base_val=0 or missing \u2192 NaN, never divide by zero\n)\n\n# \u2500\u2500 BPSHIFT: shift flag for systolic blood pressure \u2500\u2500\n# SAS: if vstestcd = 'SYSBP' then do; ...\ndef derive_bpshift(row):\n    # Only applies to SYSBP records\n    if row[\"VSTESTCD\"] != \"SYSBP\":\n        return np.nan                # Non-SYSBP rows carry no shift value\n    if pd.isna(row[\"VSSTRESN\"]):\n        return np.nan\n    if row[\"VSSTRESN\"] < 90:\n        return \"Low\"\n    elif row[\"VSSTRESN\"] > 140:\n        return \"High\"\n    else:\n        return \"Normal\"\n\nadvs_base[\"BPSHIFT\"] = advs_base.apply(derive_bpshift, axis=1)\n\n# \u2500\u2500 AVISIT: analysis visit window assignment \u2500\u2500\n# SAS: if/else chain based on ADY value\ndef derive_avisit(ady):\n    if pd.isna(ady):\n        return \"Unscheduled\"\n    elif ady <= 0:\n        return \"Baseline\"\n    elif 1 <= ady <= 14:\n        return \"Week 2\"\n    elif 15 <= ady <= 28:\n        return \"Week 4\"\n    elif 29 <= ady <= 56:\n        return \"Week 8\"\n    else:\n        return \"Post-treatment\"\n\nadvs_base[\"AVISIT\"] = advs_base[\"ADY\"].apply(derive_avisit)\n\n# \u2500\u2500 Drop intermediate working column \u2500\u2500\n# SAS: drop base; (the intermediate per-record BASE column before propagation)\n# BASE_VAL is the propagated baseline \u2014 rename to match ADaM convention\nadvs_base = advs_base.rename(columns={\"BASE_VAL\": \"BASE\"})\n\n# \u2500\u2500 Append variable labels to attrs \u2500\u2500\nadvs_base.attrs[\"variable_labels\"].update({\n    \"CHG\":     \"Change from Baseline\",\n    \"PCHG\":    \"Percent Change from Baseline\",\n    \"BPSHIFT\": \"Blood Pressure Shift Category\",\n    \"AVISIT\":  \"Analysis Visit\",\n})\n\n# \u2500\u2500 Final sort to match output dataset ordering \u2500\u2500\nadvs = (\n    advs_base\n    .sort_values([\"USUBJID\", \"VSTESTCD\", \"VSDT\"])\n    .reset_index(drop=True)\n)\n\n# \u2500\u2500 Write ADVS to SAS transport or parquet \u2500\u2500\n# SAS: data adam.advs; -> written to libname adam\nadvs.to_parquet(os.path.join(ADAM_PATH, \"advs.parquet\"), index=False)\n\n# ============================================================\n# Summary statistics (replaces PROC MEANS block)\n# SAS: proc means data=adam.advs n mean std min max;\n#          class vstestcd avisit;\n#          var vsstresn chg pchg;\n# ============================================================\n\n# Only include rows where at least one analysis var is non-missing\nanalysis_vars = [\"VSSTRESN\", \"CHG\", \"PCHG\"]\n\nadvs_summ = (\n    advs\n    .groupby([\"VSTESTCD\", \"AVISIT\"], dropna=False)[analysis_vars]\n    .agg(\n        n_obs  =(\"VSSTRESN\", \"count\"),  # SAS: n= mirrors non-missing count\n        mean_val=(\"VSSTRESN\", \"mean\"),\n        std_val =(\"VSSTRESN\", \"std\"),   # pandas ddof=1 matches SAS default\n        min_val =(\"VSSTRESN\", \"min\"),\n        max_val =(\"VSSTRESN\", \"max\"),\n    )\n    .reset_index()\n)\n\n# Note: agg() with named aggregation requires a single column reference per stat.\n# For CHG and PCHG summaries, compute separately and merge.\nchg_summ = (\n    advs\n    .groupby([\"VSTESTCD\", \"AVISIT\"], dropna=False)[[\"CHG\", \"PCHG\"]]\n    .agg([\"count\", \"mean\", \"std\", \"min\", \"max\"])\n    .reset_index()\n)\n# Flatten multi-level columns from agg\nchg_summ.columns = [\n    \"_\".join(col).strip(\"_\") if isinstance(col, tuple) else col\n    for col in chg_summ.columns\n]\n\nadvs_summ = pd.merge(advs_summ, chg_summ, on=[\"VSTESTCD\", \"AVISIT\"], how=\"left\")\n\n# Print summary to console (mirrors SAS title / output window)\nprint(\"=\" * 60)\nprint(\"ADVS Summary Statistics \u2014 BMN-999-001\")\nprint(\"=\" * 60)\nprint(advs_summ.to_string(index=False))\n\n# \u2500\u2500 Write summary dataset \u2500\u2500\n# SAS: output out=advs_summ\nadvs_summ.to_parquet(os.path.join(ADAM_PATH, \"advs_summ.parquet\"), index=False)",
      "tfl_flagged": false
    },
    {
      "filename": "adtte.sas",
      "cosine_score": 0.6098,
      "sas_loc": 75,
      "py_loc": 236,
      "translation_time": 59.6,
      "validation_status": "valid",
      "correction_attempts": 0,
      "routing_decision": "REVIEW_REQUIRED",
      "routing_reason": "Medium cosine similarity (0.6098) \u2014 translation likely correct but requires reviewer confirmation",
      "python_code": "# Translated from: adtte.sas | ClinTranslate v4 Agentic\n# ============================================================\n# Program  : adtte.py\n# Study    : BMN-999-001\n# Purpose  : Create ADTTE - Time to First AE Analysis Dataset\n# Author   : Clinical Data Engineering (Python Translation)\n# Created  : 2024-02-01\n# 21 CFR Part 11 Note: All derivations are explicit and auditable.\n#   No silent imputation or in-place modification of source data.\n# ============================================================\n\nimport pandas as pd\nimport numpy as np\nimport logging\nimport sys\n\n# Configure audit-friendly logging\nlogging.basicConfig(\n    level=logging.INFO,\n    format=\"%(asctime)s [%(levelname)s] %(message)s\",\n    handlers=[logging.StreamHandler(sys.stdout)]\n)\nlog = logging.getLogger(__name__)\n\n# \u2500\u2500 I/O paths (mirror SAS libname declarations) \u2500\u2500\u2500\u2500\u2500\u2500\u2500\u2500\u2500\u2500\u2500\u2500\u2500\u2500\u2500\u2500\u2500\u2500\u2500\u2500\u2500\u2500\u2500\u2500\u2500\u2500\u2500\u2500\u2500\u2500\n# SAS: libname adam '/data/bmn999/adam';\n# SAS: libname sdtm '/data/bmn999/sdtm';\nADAM_PATH = \"/data/bmn999/adam\"\nSDTM_PATH = \"/data/bmn999/sdtm\"\n\n\n# \u2500\u2500\u2500\u2500\u2500\u2500\u2500\u2500\u2500\u2500\u2500\u2500\u2500\u2500\u2500\u2500\u2500\u2500\u2500\u2500\u2500\u2500\u2500\u2500\u2500\u2500\u2500\u2500\u2500\u2500\u2500\u2500\u2500\u2500\u2500\u2500\u2500\u2500\u2500\u2500\u2500\u2500\u2500\u2500\u2500\u2500\u2500\u2500\u2500\u2500\u2500\u2500\u2500\u2500\u2500\u2500\u2500\u2500\u2500\u2500\u2500\u2500\u2500\u2500\u2500\u2500\u2500\u2500\u2500\u2500\u2500\u2500\u2500\u2500\u2500\u2500\u2500\n# Helper: safe SAS-style date parser (ISO 8601 partial dates \u2192 NaT)\n# Mirrors: input(aestdtc, yymmdd10.)\n# \u2500\u2500\u2500\u2500\u2500\u2500\u2500\u2500\u2500\u2500\u2500\u2500\u2500\u2500\u2500\u2500\u2500\u2500\u2500\u2500\u2500\u2500\u2500\u2500\u2500\u2500\u2500\u2500\u2500\u2500\u2500\u2500\u2500\u2500\u2500\u2500\u2500\u2500\u2500\u2500\u2500\u2500\u2500\u2500\u2500\u2500\u2500\u2500\u2500\u2500\u2500\u2500\u2500\u2500\u2500\u2500\u2500\u2500\u2500\u2500\u2500\u2500\u2500\u2500\u2500\u2500\u2500\u2500\u2500\u2500\u2500\u2500\u2500\u2500\u2500\u2500\u2500\ndef parse_iso_date(series: pd.Series) -> pd.Series:\n    \"\"\"\n    Parse ISO 8601 character dates (YYYY-MM-DD) to pandas datetime.\n    Partial dates (YYYY-MM, YYYY) are coerced to NaT \u2014 no silent imputation.\n    \"\"\"\n    return pd.to_datetime(series, format=\"%Y-%m-%d\", errors=\"coerce\")\n\n\n# \u2500\u2500\u2500\u2500\u2500\u2500\u2500\u2500\u2500\u2500\u2500\u2500\u2500\u2500\u2500\u2500\u2500\u2500\u2500\u2500\u2500\u2500\u2500\u2500\u2500\u2500\u2500\u2500\u2500\u2500\u2500\u2500\u2500\u2500\u2500\u2500\u2500\u2500\u2500\u2500\u2500\u2500\u2500\u2500\u2500\u2500\u2500\u2500\u2500\u2500\u2500\u2500\u2500\u2500\u2500\u2500\u2500\u2500\u2500\u2500\u2500\u2500\u2500\u2500\u2500\u2500\u2500\u2500\u2500\u2500\u2500\u2500\u2500\u2500\u2500\u2500\u2500\n# Step 1: Get first AE date per subject\n# SAS: proc sort + data step with first.usubjid\n# \u2500\u2500\u2500\u2500\u2500\u2500\u2500\u2500\u2500\u2500\u2500\u2500\u2500\u2500\u2500\u2500\u2500\u2500\u2500\u2500\u2500\u2500\u2500\u2500\u2500\u2500\u2500\u2500\u2500\u2500\u2500\u2500\u2500\u2500\u2500\u2500\u2500\u2500\u2500\u2500\u2500\u2500\u2500\u2500\u2500\u2500\u2500\u2500\u2500\u2500\u2500\u2500\u2500\u2500\u2500\u2500\u2500\u2500\u2500\u2500\u2500\u2500\u2500\u2500\u2500\u2500\u2500\u2500\u2500\u2500\u2500\u2500\u2500\u2500\u2500\u2500\u2500\nlog.info(\"Step 1: Loading AE dataset and deriving first AE date per subject.\")\n\n# SAS: set sdtm.ae\nae_raw = pd.read_sas(f\"{SDTM_PATH}/ae.sas7bdat\", encoding=\"latin1\")\n\n# Preserve original column names as CDISC SDTM spec requires\nae_raw.columns = [c.upper() for c in ae_raw.columns]\n\n# SAS: first_ae_dt = input(aestdtc, yymmdd10.)\nae_raw[\"FIRST_AE_DT\"] = parse_iso_date(ae_raw[\"AESTDTC\"])\n\n# SAS: proc sort by usubjid aestdtc; then if first.usubjid\n# Sort ascending so the earliest date is first within each subject\nae_sorted = ae_raw.sort_values(\n    by=[\"USUBJID\", \"AESTDTC\"],\n    ascending=[True, True],\n    na_position=\"last\"          # push unparseable dates to end, never silently first\n).reset_index(drop=True)\n\n# Keep only the first AE record per subject \u2014 mirrors: if first.usubjid\n# SAS: keep usubjid first_ae_dt aesev aeser\nae_first = (\n    ae_sorted\n    .groupby(\"USUBJID\", sort=False)\n    .first()                    # first row after sort = earliest AESTDTC\n    .reset_index()[[\"USUBJID\", \"FIRST_AE_DT\", \"AESEV\", \"AESER\"]]\n)\n\nlog.info(\"ae_first shape: %s\", ae_first.shape)\n\n\n# \u2500\u2500\u2500\u2500\u2500\u2500\u2500\u2500\u2500\u2500\u2500\u2500\u2500\u2500\u2500\u2500\u2500\u2500\u2500\u2500\u2500\u2500\u2500\u2500\u2500\u2500\u2500\u2500\u2500\u2500\u2500\u2500\u2500\u2500\u2500\u2500\u2500\u2500\u2500\u2500\u2500\u2500\u2500\u2500\u2500\u2500\u2500\u2500\u2500\u2500\u2500\u2500\u2500\u2500\u2500\u2500\u2500\u2500\u2500\u2500\u2500\u2500\u2500\u2500\u2500\u2500\u2500\u2500\u2500\u2500\u2500\u2500\u2500\u2500\u2500\u2500\u2500\n# Step 2: Merge with ADSL\n# SAS: merge adam.adsl (in=inADSL ...) ae_first (in=inAE); by usubjid;\n# \u2500\u2500\u2500\u2500\u2500\u2500\u2500\u2500\u2500\u2500\u2500\u2500\u2500\u2500\u2500\u2500\u2500\u2500\u2500\u2500\u2500\u2500\u2500\u2500\u2500\u2500\u2500\u2500\u2500\u2500\u2500\u2500\u2500\u2500\u2500\u2500\u2500\u2500\u2500\u2500\u2500\u2500\u2500\u2500\u2500\u2500\u2500\u2500\u2500\u2500\u2500\u2500\u2500\u2500\u2500\u2500\u2500\u2500\u2500\u2500\u2500\u2500\u2500\u2500\u2500\u2500\u2500\u2500\u2500\u2500\u2500\u2500\u2500\u2500\u2500\u2500\u2500\nlog.info(\"Step 2: Loading ADSL and merging with ae_first.\")\n\nadsl_raw = pd.read_sas(f\"{ADAM_PATH}/adsl.sas7bdat\", encoding=\"latin1\")\nadsl_raw.columns = [c.upper() for c in adsl_raw.columns]\n\n# SAS: keep=usubjid trtsdt trtedt saffl armcd\n# TRTSDT / TRTEDT arrive as SAS numeric dates; convert to datetime\nadsl = adsl_raw[[\"USUBJID\", \"TRTSDT\", \"TRTEDT\", \"SAFFL\", \"ARMCD\"]].copy()\n\n# SAS numeric dates are days since 1960-01-01; convert to pandas datetime\nsas_epoch = pd.Timestamp(\"1960-01-01\")\n\nfor col in [\"TRTSDT\", \"TRTEDT\"]:\n    # Guard: only convert if not already datetime (robust to different read_sas behaviors)\n    if not pd.api.types.is_datetime64_any_dtype(adsl[col]):\n        adsl[col] = pd.to_timedelta(adsl[col], unit=\"D\") + sas_epoch\n\n# SAS: merge ... by usubjid; if inADSL (left join from ADSL perspective)\n# ae_first subjects not in ADSL are silently dropped \u2014 mirrors SAS if inADSL\nadtte_base = pd.merge(\n    adsl,\n    ae_first,\n    on=\"USUBJID\",\n    how=\"left\"                  # left = inADSL; ae_first match = inAE\n)\n\n# SAS: if inADSL and saffl = 'Y'  \u2192  filter to safety-evaluable subjects\nadtte_base = adtte_base[adtte_base[\"SAFFL\"].str.strip() == \"Y\"].copy()\nlog.info(\"After SAFFL filter, adtte_base shape: %s\", adtte_base.shape)\n\n# \u2500\u2500 Derive EVNTFL (event flag) \u2500\u2500\u2500\u2500\u2500\u2500\u2500\u2500\u2500\u2500\u2500\u2500\u2500\u2500\u2500\u2500\u2500\u2500\u2500\u2500\u2500\u2500\u2500\u2500\u2500\u2500\u2500\u2500\u2500\u2500\u2500\u2500\u2500\u2500\u2500\u2500\u2500\u2500\u2500\u2500\u2500\u2500\u2500\u2500\u2500\u2500\u2500\u2500\n# SAS: if inAE then evntfl = 'Y'; else evntfl = 'N';\n# A subject has an event if FIRST_AE_DT is non-missing (i.e., ae_first matched)\nadtte_base[\"EVNTFL\"] = np.where(\n    adtte_base[\"FIRST_AE_DT\"].notna(), \"Y\", \"N\"\n)\n\n# \u2500\u2500 Derive ADT (analysis end date) \u2500\u2500\u2500\u2500\u2500\u2500\u2500\u2500\u2500\u2500\u2500\u2500\u2500\u2500\u2500\u2500\u2500\u2500\u2500\u2500\u2500\u2500\u2500\u2500\u2500\u2500\u2500\u2500\u2500\u2500\u2500\u2500\u2500\u2500\u2500\u2500\u2500\u2500\u2500\u2500\u2500\u2500\u2500\u2500\n# SAS:\n#   if inAE          then adt = first_ae_dt;\n#   else if trtedt ne . then adt = trtedt + 1;  /* censored at last dose + 1 */\n#   else                     adt = trtsdt;\nadtte_base[\"ADT\"] = np.where(\n    adtte_base[\"EVNTFL\"] == \"Y\",\n    adtte_base[\"FIRST_AE_DT\"],                        # event: use first AE date\n    np.where(\n        adtte_base[\"TRTEDT\"].notna(),\n        adtte_base[\"TRTEDT\"] + pd.Timedelta(days=1),  # censored: last dose + 1\n        adtte_base[\"TRTSDT\"]                          # fallback: treatment start\n    )\n)\n\n# Ensure ADT is datetime throughout\nadtte_base[\"ADT\"] = pd.to_datetime(adtte_base[\"ADT\"])\n\n\n# \u2500\u2500\u2500\u2500\u2500\u2500\u2500\u2500\u2500\u2500\u2500\u2500\u2500\u2500\u2500\u2500\u2500\u2500\u2500\u2500\u2500\u2500\u2500\u2500\u2500\u2500\u2500\u2500\u2500\u2500\u2500\u2500\u2500\u2500\u2500\u2500\u2500\u2500\u2500\u2500\u2500\u2500\u2500\u2500\u2500\u2500\u2500\u2500\u2500\u2500\u2500\u2500\u2500\u2500\u2500\u2500\u2500\u2500\u2500\u2500\u2500\u2500\u2500\u2500\u2500\u2500\u2500\u2500\u2500\u2500\u2500\u2500\u2500\u2500\u2500\u2500\u2500\n# Step 3: Compute time-to-event and final ADTTE variables\n# SAS: data adam.adtte; set adtte_base;\n# \u2500\u2500\u2500\u2500\u2500\u2500\u2500\u2500\u2500\u2500\u2500\u2500\u2500\u2500\u2500\u2500\u2500\u2500\u2500\u2500\u2500\u2500\u2500\u2500\u2500\u2500\u2500\u2500\u2500\u2500\u2500\u2500\u2500\u2500\u2500\u2500\u2500\u2500\u2500\u2500\u2500\u2500\u2500\u2500\u2500\u2500\u2500\u2500\u2500\u2500\u2500\u2500\u2500\u2500\u2500\u2500\u2500\u2500\u2500\u2500\u2500\u2500\u2500\u2500\u2500\u2500\u2500\u2500\u2500\u2500\u2500\u2500\u2500\u2500\u2500\u2500\u2500\nlog.info(\"Step 3: Deriving AVAL, CNSR, AVALOG, SEVN and parameter metadata.\")\n\nadtte = adtte_base.copy()\n\n# \u2500\u2500 AVAL: time to event in days \u2500\u2500\u2500\u2500\u2500\u2500\u2500\u2500\u2500\u2500\u2500\u2500\u2500\u2500\u2500\u2500\u2500\u2500\u2500\u2500\u2500\u2500\u2500\u2500\u2500\u2500\u2500\u2500\u2500\u2500\u2500\u2500\u2500\u2500\u2500\u2500\u2500\u2500\u2500\u2500\u2500\u2500\u2500\u2500\u2500\u2500\u2500\n# SAS: if trtsdt ne . and adt ne . then aval = adt - trtsdt + 1; else aval = .;\n# pandas timedelta .dt.days gives integer days; +1 mirrors SAS day-inclusive arithmetic\nadtte[\"AVAL\"] = np.where(\n    adtte[\"TRTSDT\"].notna() & adtte[\"ADT\"].notna(),\n    (adtte[\"ADT\"] - adtte[\"TRTSDT\"]).dt.days + 1,\n    np.nan\n)\n\n# \u2500\u2500 CNSR: censoring flag (0=event, 1=censored) \u2500\u2500\u2500\u2500\u2500\u2500\u2500\u2500\u2500\u2500\u2500\u2500\u2500\u2500\u2500\u2500\u2500\u2500\u2500\u2500\u2500\u2500\u2500\u2500\u2500\u2500\u2500\u2500\u2500\u2500\u2500\n# SAS: if evntfl = 'Y' then cnsr = 0; else cnsr = 1;\n# NOTE: SAS ADaM convention \u2014 0=event, 1=censored (opposite of some survival libs)\nadtte[\"CNSR\"] = np.where(adtte[\"EVNTFL\"] == \"Y\", 0, 1)\n\n# \u2500\u2500 AVALOG: log of analysis value \u2500\u2500\u2500\u2500\u2500\u2500\u2500\u2500\u2500\u2500\u2500\u2500\u2500\u2500\u2500\u2500\u2500\u2500\u2500\u2500\u2500\u2500\u2500\u2500\u2500\u2500\u2500\u2500\u2500\u2500\u2500\u2500\u2500\u2500\u2500\u2500\u2500\u2500\u2500\u2500\u2500\u2500\u2500\u2500\n# SAS: if aval > 0 then avalog = log(aval); else avalog = .;\nadtte[\"AVALOG\"] = np.where(\n    adtte[\"AVAL\"] > 0,\n    np.log(adtte[\"AVAL\"]),      # natural log, mirrors SAS log()\n    np.nan\n)\n\n# \u2500\u2500 SEVN: numeric severity at first event \u2500\u2500\u2500\u2500\u2500\u2500\u2500\u2500\u2500\u2500\u2500\u2500\u2500\u2500\u2500\u2500\u2500\u2500\u2500\u2500\u2500\u2500\u2500\u2500\u2500\u2500\u2500\u2500\u2500\u2500\u2500\u2500\u2500\u2500\u2500\u2500\n# SAS: if evntfl='Y' then if aesev='MILD' sevn=1; MODERATE=2; SEVERE=3; else .\nseverity_map = {\"MILD\": 1, \"MODERATE\": 2, \"SEVERE\": 3}\nadtte[\"SEVN\"] = np.where(\n    adtte[\"EVNTFL\"] == \"Y\",\n    adtte[\"AESEV\"].str.strip().str.upper().map(severity_map),\n    np.nan\n)\nadtte[\"SEVN\"] = pd.to_numeric(adtte[\"SEVN\"], errors=\"coerce\")\n\n# \u2500\u2500 Parameter metadata (constant across all rows) \u2500\u2500\u2500\u2500\u2500\u2500\u2500\u2500\u2500\u2500\u2500\u2500\u2500\u2500\u2500\u2500\u2500\u2500\u2500\u2500\u2500\u2500\u2500\u2500\u2500\u2500\u2500\u2500\n# SAS: param = '...'; paramcd = 'TTFAE'; paramu = 'Days';\nadtte[\"PARAM\"]   = \"Time to First Adverse Event (Days)\"\nadtte[\"PARAMCD\"] = \"TTFAE\"      # CDISC PARAMCD \u2014 always uppercase\nadtte[\"PARAMU\"]  = \"Days\"\n\n# \u2500\u2500 Final sort: by usubjid paramcd \u2500\u2500\u2500\u2500\u2500\u2500\u2500\u2500\u2500\u2500\u2500\u2500\u2500\u2500\u2500\u2500\u2500\u2500\u2500\u2500\u2500\u2500\u2500\u2500\u2500\u2500\u2500\u2500\u2500\u2500\u2500\u2500\u2500\u2500\u2500\u2500\u2500\u2500\u2500\u2500\u2500\u2500\u2500\n# SAS: proc sort data=adam.adtte; by usubjid paramcd;\nadtte = adtte.sort_values(\n    by=[\"USUBJID\", \"PARAMCD\"],\n    ascending=[True, True]\n).reset_index(drop=True)\n\n# \u2500\u2500 Enforce expected ADTTE column order (CDISC ADaM readability) \u2500\u2500\u2500\u2500\u2500\u2500\u2500\u2500\u2500\u2500\u2500\u2500\u2500\u2500\ncol_order = [\n    \"USUBJID\", \"ARMCD\", \"SAFFL\",\n    \"TRTSDT\", \"TRTEDT\",\n    \"PARAMCD\", \"PARAM\", \"PARAMU\",\n    \"ADT\", \"AVAL\", \"CNSR\",\n    \"AVALOG\", \"EVNTFL\", \"SEVN\",\n    \"AESEV\", \"AESER\", \"FIRST_AE_DT\"\n]\n# Only include columns that exist (guards against optional upstream variables)\ncol_order = [c for c in col_order if c in adtte.columns]\nadtte = adtte[col_order]\n\n# \u2500\u2500 Attach variable labels as pandas attrs (metadata; not enforced at runtime) \u2500\n# SAS: label aval=... cnsr=... etc.\nadtte.attrs[\"variable_labels\"] = {\n    \"AVAL\":    \"Analysis Value (Days to Event)\",\n    \"CNSR\":    \"Censor Flag (0=Event, 1=Censored)\",\n    \"AVALOG\":  \"Log Analysis Value\",\n    \"EVNTFL\":  \"Event Flag\",\n    \"PARAM\":   \"Parameter\",\n    \"PARAMCD\": \"Parameter Code\",\n    \"PARAMU\":  \"Parameter Unit\",\n    \"SEVN\":    \"Severity Numeric\",\n    \"ADT\":     \"Analysis Date\",\n    \"TRTSDT\":  \"Treatment Start Date\",\n    \"TRTEDT\":  \"Treatment End Date\",\n}\n\n# \u2500\u2500 Validation checks (21 CFR Part 11: no silent errors) \u2500\u2500\u2500\u2500\u2500\u2500\u2500\u2500\u2500\u2500\u2500\u2500\u2500\u2500\u2500\u2500\u2500\u2500\u2500\u2500\u2500\nassert adtte[\"USUBJID\"].notna().all(), \\\n    \"FATAL: Missing USUBJID values detected in ADTTE \u2014 check ADSL source.\"\nassert adtte[\"PARAMCD\"].eq(\"TTFAE\").all(), \\\n    \"FATAL: Unexpected PARAMCD values \u2014 dataset structure compromised.\"\nassert adtte[\"CNSR\"].isin([0, 1]).all(), \\\n    \"FATAL: CNSR contains values other than 0 or 1.\"\n\nn_events   = (adtte[\"CNSR\"] == 0).sum()\nn_censored = (adtte[\"CNSR\"] == 1).sum()\nn_total    = len(adtte)\nlog.info(\n    \"ADTTE summary \u2014 Total: %d | Events (CNSR=0): %d | Censored (CNSR=1): %d\",\n    n_total, n_events, n_censored\n)\n\n# \u2500\u2500 Write output dataset \u2500\u2500\u2500\u2500\u2500\u2500\u2500\u2500\u2500\u2500\u2500\u2500\u2500\u2500\u2500\u2500\u2500\u2500\u2500\u2500\u2500\u2500\u2500\u2500\u2500\u2500\u2500\u2500\u2500\u2500\u2500\u2500\u2500\u2500\u2500\u2500\u2500\u2500\u2500\u2500\u2500\u2500\u2500\u2500\u2500\u2500\u2500\u2500\u2500\u2500\u2500\u2500\u2500\u2500\n# SAS: data adam.adtte; (output to Adam library as SAS dataset)\noutput_path = f\"{ADAM_PATH}/adtte.parquet\"\nadtte.to_parquet(output_path, index=False, engine=\"pyarrow\")\nlog.info(\"ADTTE written to: %s  (shape: %s)\", output_path, adtte.shape)\n\n\n# \u2500\u2500\u2500\u2500\u2500\u2500\u2500\u2500\u2500\u2500\u2500\u2500\u2500\u2500\u2500\u2500\u2500\u2500\u2500\u2500\u2500\u2500\u2500\u2500\u2500\u2500\u2500\u2500\u2500\u2500\u2500\u2500\u2500\u2500\u2500\u2500\u2500\u2500\u2500\u2500\u2500\u2500\u2500\u2500\u2500\u2500\u2500\u2500\u2500\u2500\u2500\u2500\u2500\u2500\u2500\u2500\u2500\u2500\u2500\u2500\u2500\u2500\u2500\u2500\u2500\u2500\u2500\u2500\u2500\u2500\u2500\u2500\u2500\u2500\u2500\u2500\u2500\n# [REQUIRES_MANUAL_REVIEW: TFL output]\n# SAS block below uses PROC LIFETEST (Kaplan-Meier) \u2014 no direct pandas equivalent.\n# Recommend: lifelines.KaplanMeierFitter or statsmodels.duration.survfunc\n# Replace with validated survival analysis library approved by your statistical team.\n#\n# Original SAS:\n#   proc lifetest data=adam.adtte notable;\n#       time aval * cnsr(1);      \u2190 cnsr(1) = censoring value is 1\n#       strata armcd;\n#       title 'Time to First AE \u2014 KM Summary BMN-999-001';\n#   run;\n#\n# Illustrative lifelines equivalent (requires QC before production use):\n#\n#   from lifelines import KaplanMeierFitter\n#   import matplotlib.pyplot as plt\n#\n#   fig, ax = plt.subplots(figsize=(8, 5))\n#   for arm, grp in adtte.groupby(\"ARMCD\"):\n#       kmf = KaplanMeierFitter()\n#       kmf.fit(\n#           durations  = grp[\"AVAL\"],\n#           event_observed = (grp[\"CNSR\"] == 0),  # cnsr(1) \u2192 event when CNSR != 1\n#           label      = arm\n#       )\n#       kmf.plot_survival_function(ax=ax)\n#   ax.set_title(\"Time to First AE \u2014 KM Summary BMN-999-001\")\n#   ax.set_xlabel(\"Days\")\n#   ax.set_ylabel(\"Survival Probability\")\n#   plt.tight_layout()\n#   plt.savefig(f\"{ADAM_PATH}/km_ttfae.png\", dpi=300)\n# \u2500\u2500\u2500\u2500\u2500\u2500\u2500\u2500\u2500\u2500\u2500\u2500\u2500\u2500\u2500\u2500\u2500\u2500\u2500\u2500\u2500\u2500\u2500\u2500\u2500\u2500\u2500\u2500\u2500\u2500\u2500\u2500\u2500\u2500\u2500\u2500\u2500\u2500\u2500\u2500\u2500\u2500\u2500\u2500\u2500\u2500\u2500\u2500\u2500\u2500\u2500\u2500\u2500\u2500\u2500\u2500\u2500\u2500\u2500\u2500\u2500\u2500\u2500\u2500\u2500\u2500\u2500\u2500\u2500\u2500\u2500\u2500\u2500\u2500\u2500\u2500\u2500",
      "tfl_flagged": true
    },
    {
      "filename": "adae_merge.sas",
      "cosine_score": 0.7083,
      "sas_loc": 21,
      "py_loc": 145,
      "translation_time": 37.0,
      "validation_status": "valid",
      "correction_attempts": 0,
      "routing_decision": "REVIEW_REQUIRED",
      "routing_reason": "Medium cosine similarity (0.7083) \u2014 translation likely correct but requires reviewer confirmation",
      "python_code": "# Translated from: adae_merge.sas | ClinTranslate v4 Agentic\n# Study: BioMarin BMN-999 \u2014 ADAE derivation\n# Source SAS file: ADAE_MERGE.sas\n# Translation notes:\n#   - SAS MERGE with IN= guards maps to pd.merge(..., how='left') with indicator validation\n#   - SAS BY-merge requires pre-sorted inputs; enforced explicitly below\n#   - SAS date string comparisons (aestdtc >= rfstdtc) preserved as string ops on ISO8601\n#   - Variable labels stored in a companion dict (SAS LABEL stmt has no direct pandas equiv)\n#   - 21 CFR Part 11: all source row counts logged before/after merge for traceability\n#   - No silent row drop: assertion confirms only AE-side records are retained\n\nimport pandas as pd\nimport numpy as np\nimport logging\n\nlogging.basicConfig(\n    level=logging.INFO,\n    format=\"%(asctime)s [%(levelname)s] %(message)s\"\n)\nlog = logging.getLogger(__name__)\n\n# ---------------------------------------------------------------------------\n# 0. Load source datasets\n#    SAS: libname adam '/data/adam'; libname sdtm '/data/sdtm';\n# ---------------------------------------------------------------------------\nae_path  = \"/data/sdtm/ae.parquet\"   # adjust extension to match site standard\ndm_path  = \"/data/sdtm/dm.parquet\"\n\nae = pd.read_parquet(ae_path)\ndm = pd.read_parquet(dm_path)\n\n# 21 CFR Part 11: record source counts for audit trail\nlog.info(\"SDTM AE rows loaded : %d\", len(ae))\nlog.info(\"SDTM DM rows loaded : %d\", len(dm))\n\n# ---------------------------------------------------------------------------\n# 1. Subset DM to required variables only\n#    SAS: sdtm.dm (keep=usubjid age sex race armcd)\n# ---------------------------------------------------------------------------\ndm_keep = dm[[\"USUBJID\", \"AGE\", \"SEX\", \"RACE\", \"ARMCD\"]].copy()\n\n# ---------------------------------------------------------------------------\n# 2. Pre-sort both datasets by USUBJID\n#    SAS MERGE requires datasets to be sorted by BY variable(s)\n# ---------------------------------------------------------------------------\nae      = ae.sort_values(\"USUBJID\",      kind=\"mergesort\").reset_index(drop=True)\ndm_keep = dm_keep.sort_values(\"USUBJID\", kind=\"mergesort\").reset_index(drop=True)\n\n# ---------------------------------------------------------------------------\n# 3. Left-join AE to DM on USUBJID\n#    SAS: merge sdtm.ae (in=inAE) sdtm.dm (...); by usubjid; if inAE;\n#    - how='left'  \u2192 keeps all AE rows (inAE guard), drops DM-only rows\n#    - indicator   \u2192 allows explicit verification of match status\n# ---------------------------------------------------------------------------\nadae = pd.merge(\n    ae,\n    dm_keep,\n    on=\"USUBJID\",\n    how=\"left\",\n    indicator=True   # adds '_merge' column: 'left_only' | 'both'\n)\n\n# 21 CFR Part 11: assert no AE records were silently lost\nassert len(adae) == len(ae), (\n    f\"Row count mismatch after merge: AE had {len(ae)} rows, \"\n    f\"merged result has {len(adae)} rows. Investigate duplicate USUBJID keys in DM.\"\n)\n\n# Log subjects in AE with no DM match (data quality flag, not a silent drop)\nunmatched_ae = adae.loc[adae[\"_merge\"] == \"left_only\", \"USUBJID\"].nunique()\nif unmatched_ae > 0:\n    log.warning(\n        \"%d USUBJID(s) in AE have no matching DM record. \"\n        \"DM-derived variables (AGE, SEX, RACE, ARMCD) will be NaN for these subjects.\",\n        unmatched_ae\n    )\n\n# Drop merge indicator \u2014 not part of ADaM dataset specification\nadae = adae.drop(columns=[\"_merge\"])\n\nlog.info(\"ADAE rows after merge (inAE guard): %d\", len(adae))\n\n# ---------------------------------------------------------------------------\n# 4. Severity grade numeric mapping\n#    SAS: if aesev='MILD' then aesevn=1; else if ... 'MODERATE' ... 2; etc.\n#    - np.select preserves SAS if/else-if ladder logic exactly\n#    - Unmatched values \u2192 NaN (not 0) to avoid silent misclassification\n# ---------------------------------------------------------------------------\nsev_conditions = [\n    adae[\"AESEV\"].eq(\"MILD\"),\n    adae[\"AESEV\"].eq(\"MODERATE\"),\n    adae[\"AESEV\"].eq(\"SEVERE\")\n]\nsev_choices = [1, 2, 3]\n\nadae[\"AESEVN\"] = np.select(\n    sev_conditions,\n    sev_choices,\n    default=np.nan  # SAS would output missing (.) for unmatched \u2014 preserved here\n)\n\n# Cast to nullable integer to honour ADaM numeric type while allowing NaN\nadae[\"AESEVN\"] = adae[\"AESEVN\"].astype(\"Int64\")\n\n# ---------------------------------------------------------------------------\n# 5. Treatment-emergent flag derivation\n#    SAS: if aestdtc >= rfstdtc then TRTEMFL='Y'; else TRTEMFL='N';\n#    - Both AESTDTC and RFSTDTC are ISO8601 strings; lexicographic comparison\n#      is valid for full YYYY-MM-DD dates (partial dates require site review)\n#    - Where either date is missing, result is NaN \u2014 not silently forced to 'N'\n# ---------------------------------------------------------------------------\n\n# Guard: warn if partial ISO8601 dates are present (e.g. '2023-06' without day)\npartial_aestdtc = adae[\"AESTDTC\"].dropna().str.len().lt(10).any()\npartial_rfstdtc = adae[\"RFSTDTC\"].dropna().str.len().lt(10).any()\nif partial_aestdtc or partial_rfstdtc:\n    log.warning(\n        \"Partial ISO8601 dates detected in AESTDTC or RFSTDTC. \"\n        \"String comparison for TRTEMFL may be unreliable \u2014 manual review required.\"\n    )\n\n# Derive TRTEMFL using vectorised string comparison\nadae[\"TRTEMFL\"] = np.where(\n    adae[\"AESTDTC\"].isna() | adae[\"RFSTDTC\"].isna(),\n    np.nan,                                      # missing date \u2192 flag is indeterminate\n    np.where(adae[\"AESTDTC\"] >= adae[\"RFSTDTC\"], \"Y\", \"N\")\n)\n\n# ---------------------------------------------------------------------------\n# 6. Variable labels (SAS LABEL statement equivalent)\n#    No native pandas column labels; stored in attrs dict per PEP convention\n#    Downstream TFL macros should read from VARIABLE_LABELS\n# ---------------------------------------------------------------------------\nVARIABLE_LABELS = {\n    \"AESEVN\" : \"Severity Grade (Numeric)\",\n    \"TRTEMFL\": \"Treatment-Emergent Flag\"\n}\n\n# Attach labels to DataFrame metadata (non-destructive, survives column ops)\nadae.attrs[\"variable_labels\"] = VARIABLE_LABELS\n\nlog.info(\"Variable labels registered: %s\", VARIABLE_LABELS)\n\n# ---------------------------------------------------------------------------\n# 7. Final sort\n#    SAS: proc sort data=adam.adae; by usubjid aestdtc; run;\n# ---------------------------------------------------------------------------\nadae = (\n    adae\n    .sort_values(\n        [\"USUBJID\", \"AESTDTC\"],\n        ascending=[True, True],\n        kind=\"mergesort\",        # stable sort \u2014 preserves original row order on ties\n        na_position=\"last\"       # missing dates sorted to end, consistent with SAS behaviour\n    )\n    .reset_index(drop=True)\n)\n\nlog.info(\"ADAE final row count: %d\", len(adae))\nlog.info(\"ADAE columns: %s\", adae.columns.tolist())\n\n# ---------------------------------------------------------------------------\n# 8. Write output dataset\n#    SAS: data adam.adae; ... (written to adam libname)\n#    Parquet preserves dtypes; use SAS7BDAT writer if XPT/SAS transport required\n# ---------------------------------------------------------------------------\noutput_path = \"/data/adam/adae.parquet\"\nadae.to_parquet(output_path, index=False, engine=\"pyarrow\")\nlog.info(\"ADAE written to: %s\", output_path)",
      "tfl_flagged": false
    },
    {
      "filename": "adlb_baseline.sas",
      "cosine_score": 0.5342,
      "sas_loc": 33,
      "py_loc": 197,
      "translation_time": 50.9,
      "validation_status": "valid",
      "correction_attempts": 0,
      "routing_decision": "REJECTED",
      "routing_reason": "Low cosine similarity (0.5342) \u2014 insufficient knowledge base coverage; manual translation recommended",
      "python_code": "# Translated from: adlb_baseline.sas | ClinTranslate v4 Agentic\n# Study: BioMarin BMN-999 \u2014 ADLB Baseline Derivation\n# Source SAS program: ADLB_BASELINE.sas\n# Translation preserves all CDISC ADaM variable names per 21 CFR Part 11 requirements.\n# No silent data modification: all derivation logic is explicit and auditable.\n\nimport pandas as pd\nimport numpy as np\n\n# ---------------------------------------------------------------------------\n# [SAS: libname / proc sort]\n# Load SDTM LB domain from source parquet/CSV store.\n# Adjust read function and path as appropriate for site infrastructure.\n# ---------------------------------------------------------------------------\n\n# [SAS: proc sort data=sdtm.lb out=lb_sorted; by usubjid lbtestcd lbdtc;]\n# Read source SDTM LB dataset \u2014 replace with site-specific I/O layer as needed.\nlb_raw = pd.read_parquet('/data/sdtm/lb.parquet')\n\n# Sort ascending by USUBJID, LBTESTCD, LBDTC \u2014 mirrors SAS PROC SORT.\n# SAS character date ISO strings sort correctly lexicographically (YYYY-MM-DD).\nlb_sorted = lb_raw.sort_values(\n    by=['USUBJID', 'LBTESTCD', 'LBDTC'],\n    ascending=True,\n    na_position='last'       # NaT/NaN dates sort to end, consistent with SAS\n).reset_index(drop=True)\n\n# ---------------------------------------------------------------------------\n# [SAS: data adam.adlb; set lb_sorted; by usubjid lbtestcd;]\n# Core ADaM ADLB baseline derivation data step.\n# ---------------------------------------------------------------------------\n\ndef derive_adlb_baseline(df: pd.DataFrame) -> pd.DataFrame:\n    \"\"\"\n    Derive ADaM ADLB baseline variables from SDTM LB.\n\n    Variables derived:\n        BASE  \u2014 Baseline Value (last LBSTRESN on or before RFSTDTC)\n        ABLFL \u2014 Baseline Record Flag ('Y' for qualifying records)\n        CHG   \u2014 Change from Baseline (LBSTRESN - BASE)\n        PCHG  \u2014 Percent Change from Baseline ((CHG / BASE) * 100)\n\n    Parameters\n    ----------\n    df : pd.DataFrame\n        Sorted SDTM LB dataframe (by USUBJID, LBTESTCD, LBDTC).\n\n    Returns\n    -------\n    pd.DataFrame\n        ADLB dataframe with derived columns added.\n\n    Notes\n    -----\n    SAS RETAIN logic is replicated via groupby + cumulative operations.\n    'first.lbtestcd' boundary is handled by groupby reset per group.\n    21 CFR Part 11: no in-place overwrites of source columns; all derived\n    variables are new columns.\n    \"\"\"\n\n    # Work on an explicit copy \u2014 never silently modify the source dataframe.\n    # [21 CFR Part 11: no silent data modification]\n    adlb = df.copy()\n\n    # Ensure LBDTC and RFSTDTC are plain strings for ISO date comparison.\n    # SAS compares character date strings lexicographically; reproduce that here.\n    # Coerce to string, preserving NaN as np.nan for guard checks below.\n    adlb['LBDTC']   = adlb['LBDTC'].astype(str).replace('nan', np.nan)\n    adlb['RFSTDTC'] = adlb['RFSTDTC'].astype(str).replace('nan', np.nan)\n\n    # Ensure LBSTRESN is numeric \u2014 coerce silently-entered strings to NaN.\n    adlb['LBSTRESN'] = pd.to_numeric(adlb['LBSTRESN'], errors='coerce')\n\n    # ---------------------------------------------------------------------------\n    # [SAS: retain base .; if first.lbtestcd then base = .;]\n    # [SAS: if lbdtc <= rfstdtc then do; base = lbstresn; ablfl = 'Y'; end;]\n    #\n    # SAS RETAIN with first.lbtestcd: base resets to missing at each new\n    # USUBJID/LBTESTCD group. Within the group, the LAST record where\n    # LBDTC <= RFSTDTC sets BASE (because SAS processes rows sequentially\n    # and overwrites base each qualifying row \u2014 last qualifying row wins).\n    #\n    # Python equivalent: within each (USUBJID, LBTESTCD) group, filter to\n    # rows where LBDTC <= RFSTDTC, then take the LAST non-missing LBSTRESN.\n    # ---------------------------------------------------------------------------\n\n    def _derive_group_baseline(grp: pd.DataFrame) -> pd.DataFrame:\n        \"\"\"\n        Per (USUBJID, LBTESTCD) group baseline derivation.\n        Mirrors SAS sequential RETAIN behaviour within a BY group.\n        \"\"\"\n        grp = grp.copy()\n\n        # Initialise derived columns \u2014 mirrors SAS automatic initialisation.\n        grp['ABLFL'] = np.nan         # Will be set to 'Y' or remain missing\n        grp['BASE']  = np.nan         # [SAS: retain base .; reset at first.lbtestcd]\n\n        # Identify pre-dose / on-dose-day records: LBDTC <= RFSTDTC.\n        # Guard: both values must be non-missing strings for comparison.\n        # [SAS: if lbdtc <= rfstdtc]\n        pre_dose_mask = (\n            grp['LBDTC'].notna()\n            & grp['RFSTDTC'].notna()\n            & (grp['LBDTC'] <= grp['RFSTDTC'])   # ISO string comparison\n        )\n\n        pre_dose_rows = grp[pre_dose_mask]\n\n        # [SAS: base = lbstresn \u2014 last qualifying row because RETAIN overwrites]\n        # The dataset is pre-sorted by LBDTC ascending, so the last pre-dose\n        # row with non-missing LBSTRESN is the baseline value.\n        qualifying = pre_dose_rows[pre_dose_rows['LBSTRESN'].notna()]\n\n        if not qualifying.empty:\n            baseline_idx   = qualifying.index[-1]      # Last qualifying record\n            baseline_value = qualifying.loc[baseline_idx, 'LBSTRESN']\n\n            # Set ABLFL = 'Y' on the baseline record only.\n            # [SAS: ablfl = 'Y']\n            grp.loc[baseline_idx, 'ABLFL'] = 'Y'\n\n            # Propagate BASE to all records in the group.\n            # [SAS: retain base \u2014 value carries forward for CHG/PCHG on all rows]\n            grp['BASE'] = baseline_value\n\n        return grp\n\n    # Apply group-level derivation across all (USUBJID, LBTESTCD) groups.\n    # [SAS: by usubjid lbtestcd \u2014 first./last. boundary logic]\n    adlb = (\n        adlb\n        .groupby(['USUBJID', 'LBTESTCD'], group_keys=False, sort=False)\n        .apply(_derive_group_baseline)\n    )\n\n    # ---------------------------------------------------------------------------\n    # [SAS: if base ne . and lbstresn ne . then chg = lbstresn - base; else chg = .;]\n    # CHG: only computed when both BASE and LBSTRESN are non-missing.\n    # np.nan arithmetic would silently produce NaN, but we apply the explicit\n    # guard to preserve SAS intent and 21 CFR Part 11 auditability.\n    # ---------------------------------------------------------------------------\n    both_present = adlb['BASE'].notna() & adlb['LBSTRESN'].notna()\n\n    adlb['CHG'] = np.where(\n        both_present,\n        adlb['LBSTRESN'] - adlb['BASE'],   # [SAS: chg = lbstresn - base]\n        np.nan                               # [SAS: else chg = .]\n    )\n\n    # ---------------------------------------------------------------------------\n    # [SAS: if base ne 0 and base ne . then pchg = (chg / base) * 100; else pchg = .;]\n    # PCHG: guard against division by zero and missing BASE explicitly.\n    # ---------------------------------------------------------------------------\n    base_valid = adlb['BASE'].notna() & (adlb['BASE'] != 0)\n\n    adlb['PCHG'] = np.where(\n        base_valid,\n        (adlb['CHG'] / adlb['BASE']) * 100,  # [SAS: pchg = (chg / base) * 100]\n        np.nan                                  # [SAS: else pchg = .]\n    )\n\n    # ---------------------------------------------------------------------------\n    # [SAS: label \u2014 variable labels stored as column metadata in attrs dict]\n    # Pandas does not natively store column labels; attach to column attrs\n    # for downstream use by TFL/export utilities.\n    # ---------------------------------------------------------------------------\n    variable_labels = {\n        'BASE':  'Baseline Value',\n        'CHG':   'Change from Baseline',\n        'PCHG':  'Percent Change from Baseline',\n        'ABLFL': 'Baseline Record Flag',\n    }\n    for var, label in variable_labels.items():\n        if var in adlb.columns:\n            adlb[var].attrs['label'] = label   # [SAS: label statement equivalent]\n\n    return adlb\n\n\n# Execute derivation.\nadlb = derive_adlb_baseline(lb_sorted)\n\n# ---------------------------------------------------------------------------\n# [SAS: libname adam \u2014 write output dataset]\n# Write derived ADLB to the ADaM output store.\n# ---------------------------------------------------------------------------\nadlb.to_parquet('/data/adam/adlb.parquet', index=False)\n\n# ---------------------------------------------------------------------------\n# [SAS: proc means data=adam.adlb n mean std min max; class lbtestcd; var lbstresn chg pchg;]\n# Reproduce summary statistics stratified by LBTESTCD.\n# [REQUIRES_MANUAL_REVIEW: TFL output]\n# Note: proc means ODS RTF/output table formatting requires manual TFL setup.\n# The DataFrame below mirrors the out=adlb_summ output dataset only.\n# ---------------------------------------------------------------------------\n\nsummary_vars = ['LBSTRESN', 'CHG', 'PCHG']\n\n# Ensure summary vars are numeric before aggregation.\nfor col in summary_vars:\n    adlb[col] = pd.to_numeric(adlb[col], errors='coerce')\n\n# [SAS: proc means n mean std min max \u2014 class lbtestcd]\nadlb_summ = (\n    adlb\n    .groupby('LBTESTCD', observed=True)[summary_vars]\n    .agg(\n        n=('LBSTRESN', 'count'),       # [SAS: n]\n        mean_val=('LBSTRESN', 'mean'), # [SAS: mean= mean_val in output= statement]\n        std_val=('LBSTRESN', 'std'),   # [SAS: std= std_val]\n        min_val=('LBSTRESN', 'min'),   # [SAS: min]\n        max_val=('LBSTRESN', 'max'),   # [SAS: max]\n    )\n    .reset_index()\n)\n\n# Extend to include CHG and PCHG summary statistics \u2014 mirrors PROC MEANS var list.\n# [SAS: var lbstresn chg pchg \u2014 all listed variables summarised per class level]\nadlb_summ_extended = (\n    adlb\n    .groupby('LBTESTCD', observed=True)[summary_vars]\n    .agg(['count', 'mean', 'std', 'min', 'max'])\n    .reset_index()\n)\n# Flatten multi-level column index produced by multi-stat agg.\nadlb_summ_extended.columns = [\n    '_'.join(filter(None, col)).strip() if col[1] else col[0]\n    for col in adlb_summ_extended.columns\n]\n\n# Persist summary output dataset \u2014 mirrors SAS output out=adlb_summ.\nadlb_summ_extended.to_parquet('/data/adam/adlb_summ.parquet', index=False)\n\n# [REQUIRES_MANUAL_REVIEW: TFL output]\n# PROC MEANS ODS RTF formatted table output is not translated.\n# Reproduce using site-standard TFL Python tooling (e.g., rpy2, Jupyter, or\n# validated reporting library) with appropriate 21 CFR Part 11 audit trail.",
      "tfl_flagged": true
    },
    {
      "filename": "adcm.sas",
      "cosine_score": 0.6127,
      "sas_loc": 82,
      "py_loc": 273,
      "translation_time": 64.1,
      "validation_status": "valid",
      "correction_attempts": 0,
      "routing_decision": "REVIEW_REQUIRED",
      "routing_reason": "Medium cosine similarity (0.6127) \u2014 translation likely correct but requires reviewer confirmation",
      "python_code": "# Translated from: adcm.sas | ClinTranslate v4 Agentic\n# ============================================================\n# Program  : adcm.py\n# Study    : BMN-999-001\n# Purpose  : ADCM - Concomitant Medications Analysis Dataset\n# Author   : Clinical Data Engineering (Python Translation)\n# Created  : 2024-02-10\n# Translated: ClinTranslate v4 Agentic\n# ============================================================\n# 21 CFR Part 11 Notice: All derivations are explicit and traceable.\n# No silent data modification. All merge/filter steps are logged.\n# ============================================================\n\nimport pandas as pd\nimport numpy as np\nimport logging\nfrom pathlib import Path\n\n# \u2500\u2500 Logging configuration \u2500\u2500\u2500\u2500\u2500\u2500\u2500\u2500\u2500\u2500\u2500\u2500\u2500\u2500\u2500\u2500\u2500\u2500\u2500\u2500\u2500\u2500\u2500\u2500\u2500\u2500\u2500\u2500\u2500\u2500\u2500\u2500\u2500\u2500\u2500\u2500\u2500\u2500\u2500\u2500\u2500\u2500\u2500\u2500\u2500\u2500\u2500\u2500\u2500\u2500\u2500\u2500\u2500\u2500\nlogging.basicConfig(\n    level=logging.INFO,\n    format=\"%(asctime)s [%(levelname)s] %(message)s\",\n    datefmt=\"%Y-%m-%dT%H:%M:%S\",\n)\nlog = logging.getLogger(__name__)\n\n# \u2500\u2500 I/O paths (mirror SAS libnames) \u2500\u2500\u2500\u2500\u2500\u2500\u2500\u2500\u2500\u2500\u2500\u2500\u2500\u2500\u2500\u2500\u2500\u2500\u2500\u2500\u2500\u2500\u2500\u2500\u2500\u2500\u2500\u2500\u2500\u2500\u2500\u2500\u2500\u2500\u2500\u2500\u2500\u2500\u2500\u2500\u2500\u2500\nADAM_PATH = Path(\"/data/bmn999/adam\")\nSDTM_PATH = Path(\"/data/bmn999/sdtm\")\n\n# \u2500\u2500 ATC group mapping (mirrors SAS SELECT/WHEN block) \u2500\u2500\u2500\u2500\u2500\u2500\u2500\u2500\u2500\u2500\u2500\u2500\u2500\u2500\u2500\u2500\u2500\u2500\u2500\u2500\u2500\u2500\u2500\u2500\nATC_GROUP_MAP = {\n    \"A\": \"Alimentary/Metabolism\",\n    \"B\": \"Blood/Blood Forming\",\n    \"C\": \"Cardiovascular\",\n    \"J\": \"Anti-infectives\",\n    \"L\": \"Antineoplastic\",\n    \"M\": \"Musculoskeletal\",\n    \"N\": \"Nervous System\",\n    \"R\": \"Respiratory\",\n}\n\n\n# =============================================================================\n# STEP 1: Prepare CM domain\n# SAS: data cm_prep; set sdtm.cm; ...\n# =============================================================================\ndef prepare_cm(sdtm_path: Path) -> pd.DataFrame:\n    \"\"\"\n    Load CM domain and derive date variables and ATC therapeutic group.\n    Mirrors SAS data step cm_prep.\n    \"\"\"\n    log.info(\"Step 1: Loading CM domain from %s\", sdtm_path / \"cm.sas7bdat\")\n\n    # SAS: set sdtm.cm\n    cm = pd.read_sas(sdtm_path / \"cm.sas7bdat\", encoding=\"utf-8\")\n\n    # Preserve original row count for audit\n    n_input = len(cm)\n    log.info(\"  CM rows loaded: %d\", n_input)\n\n    # Normalise column names to uppercase (CDISC convention)\n    cm.columns = cm.columns.str.upper()\n\n    # \u2500\u2500 Parse ISO 8601 dates \u2500\u2500\u2500\u2500\u2500\u2500\u2500\u2500\u2500\u2500\u2500\u2500\u2500\u2500\u2500\u2500\u2500\u2500\u2500\u2500\u2500\u2500\u2500\u2500\u2500\u2500\u2500\u2500\u2500\u2500\u2500\u2500\u2500\u2500\u2500\u2500\u2500\u2500\u2500\u2500\u2500\u2500\u2500\u2500\u2500\u2500\u2500\u2500\u2500\u2500\n    # SAS: cmstdt = input(cmstdtc, yymmdd10.)\n    # SAS: cmendt = input(cmendtc, yymmdd10.)\n    # pandas.to_datetime returns NaT for missing/malformed \u2014 no silent coercion\n    cm[\"CMSTDT\"] = pd.to_datetime(cm[\"CMSTDTC\"], format=\"%Y-%m-%d\", errors=\"coerce\")\n    cm[\"CMENDT\"] = pd.to_datetime(cm[\"CMENDTC\"], format=\"%Y-%m-%d\", errors=\"coerce\")\n\n    n_bad_start = cm[\"CMSTDT\"].isna().sum()\n    n_bad_end   = cm[\"CMENDT\"].isna().sum()\n    log.info(\n        \"  Date parse: CMSTDT unparseable=%d, CMENDT unparseable=%d\",\n        n_bad_start, n_bad_end,\n    )\n\n    # \u2500\u2500 ATC class grouping \u2500\u2500\u2500\u2500\u2500\u2500\u2500\u2500\u2500\u2500\u2500\u2500\u2500\u2500\u2500\u2500\u2500\u2500\u2500\u2500\u2500\u2500\u2500\u2500\u2500\u2500\u2500\u2500\u2500\u2500\u2500\u2500\u2500\u2500\u2500\u2500\u2500\u2500\u2500\u2500\u2500\u2500\u2500\u2500\u2500\u2500\u2500\u2500\u2500\u2500\u2500\u2500\n    # SAS: atc1 = upcase(substr(cmatc, 1, 1));\n    # SAS: select (atc1) when ('A') ... otherwise 'Other'\n    cm[\"CMATC\"] = cm[\"CMATC\"].astype(str).str.strip()\n\n    # Extract first character, uppercase \u2014 mirrors substr(cmatc,1,1) + upcase()\n    atc1 = cm[\"CMATC\"].str[0].str.upper()\n\n    # Map to therapeutic group; unmapped values fall through to 'Other'\n    cm[\"ATCGRP\"] = atc1.map(ATC_GROUP_MAP).fillna(\"Other\")\n\n    # Variable label (metadata annotation; not enforced in pandas)\n    # SAS label: atcgrp = 'ATC Therapeutic Group'\n    cm.attrs[\"ATCGRP_label\"] = \"ATC Therapeutic Group\"\n\n    log.info(\"  ATCGRP distribution:\\n%s\", cm[\"ATCGRP\"].value_counts().to_string())\n    log.info(\"  cm_prep rows output: %d\", len(cm))\n    return cm\n\n\n# =============================================================================\n# STEP 2: Merge CM with ADSL\n# SAS: proc sort + data adcm_merge; merge cm_prep adsl_sub; by usubjid;\n#       if inCM and inADSL and saffl = 'Y';\n# =============================================================================\ndef merge_with_adsl(cm_prep: pd.DataFrame, adam_path: Path) -> pd.DataFrame:\n    \"\"\"\n    Left-restrict CM to subjects present in ADSL who are in the safety\n    population (SAFFL = 'Y').  Mirrors SAS merge with in= flags.\n    \"\"\"\n    log.info(\"Step 2: Loading ADSL from %s\", adam_path / \"adsl.sas7bdat\")\n\n    # SAS: keep=usubjid trtsdt trtedt saffl armcd\n    adsl_full = pd.read_sas(adam_path / \"adsl.sas7bdat\", encoding=\"utf-8\")\n    adsl_full.columns = adsl_full.columns.str.upper()\n\n    adsl_sub = adsl_full[[\"USUBJID\", \"TRTSDT\", \"TRTEDT\", \"SAFFL\", \"ARMCD\"]].copy()\n\n    # Parse treatment dates (stored as SAS numeric dates \u2192 already numeric in\n    # .sas7bdat; pandas reads them as floats representing days since 1960-01-01)\n    # Convert SAS date origin (1960-01-01) to pandas Timestamp\n    sas_epoch = pd.Timestamp(\"1960-01-01\")\n\n    for col in (\"TRTSDT\", \"TRTEDT\"):\n        # Guard: only convert if column is numeric (SAS date); if already\n        # datetime-like, skip conversion to avoid silent double-conversion.\n        if pd.api.types.is_numeric_dtype(adsl_sub[col]):\n            adsl_sub[col] = pd.to_timedelta(\n                adsl_sub[col].astype(\"float64\"), unit=\"D\"\n            ) + sas_epoch\n        else:\n            adsl_sub[col] = pd.to_datetime(adsl_sub[col], errors=\"coerce\")\n\n    # SAFFL: decode bytes if read from SAS transport\n    adsl_sub[\"SAFFL\"] = adsl_sub[\"SAFFL\"].astype(str).str.strip()\n\n    # SAS: proc sort data=cm_prep; by usubjid cmstdt;\n    cm_sorted = cm_prep.sort_values([\"USUBJID\", \"CMSTDT\"], na_position=\"last\")\n\n    # SAS: merge cm_prep(in=inCM) adsl_sub(in=inADSL); by usubjid;\n    # Inner join preserves only subjects in both datasets (inCM and inADSL)\n    merged = cm_sorted.merge(adsl_sub, on=\"USUBJID\", how=\"inner\")\n\n    n_before_saffl = len(merged)\n\n    # SAS: if inCM and inADSL and saffl = 'Y'\n    adcm_merge = merged.loc[merged[\"SAFFL\"] == \"Y\"].copy()\n\n    log.info(\n        \"  Merge: inner join rows=%d, after SAFFL='Y' filter=%d\",\n        n_before_saffl, len(adcm_merge),\n    )\n    return adcm_merge\n\n\n# =============================================================================\n# STEP 3: Treatment-emergent flag + derived variables\n# SAS: data adam.adcm; set adcm_merge; ...\n# =============================================================================\ndef derive_adcm(adcm_merge: pd.DataFrame) -> pd.DataFrame:\n    \"\"\"\n    Derive TRTEMFL, CMDUR, ASTDY, ONGOFL.\n    All conditions are explicit \u2014 no silent data modification.\n    Mirrors SAS data step adam.adcm.\n    \"\"\"\n    log.info(\"Step 3: Deriving treatment-emergent and duration variables.\")\n\n    adcm = adcm_merge.copy()\n\n    # \u2500\u2500 Treatment-emergent flag \u2500\u2500\u2500\u2500\u2500\u2500\u2500\u2500\u2500\u2500\u2500\u2500\u2500\u2500\u2500\u2500\u2500\u2500\u2500\u2500\u2500\u2500\u2500\u2500\u2500\u2500\u2500\u2500\u2500\u2500\u2500\u2500\u2500\u2500\u2500\u2500\u2500\u2500\u2500\u2500\u2500\u2500\u2500\u2500\u2500\u2500\u2500\n    # SAS: if cmstdt >= trtsdt and cmstdt <= trtedt + 30 then trtemfl = 'Y'\n    # +30 days grace window after treatment end\n\n    # Boolean masks for non-missing date conditions\n    # SAS: if cmstdt ne . and trtsdt ne . and trtedt ne .\n    dates_present = (\n        adcm[\"CMSTDT\"].notna()\n        & adcm[\"TRTSDT\"].notna()\n        & adcm[\"TRTEDT\"].notna()\n    )\n\n    # Compute treatment window: TRTSDT <= CMSTDT <= TRTEDT + 30 days\n    within_window = (\n        (adcm[\"CMSTDT\"] >= adcm[\"TRTSDT\"])\n        & (adcm[\"CMSTDT\"] <= adcm[\"TRTEDT\"] + pd.Timedelta(days=30))\n    )\n\n    # SAS: trtemfl = 'Y' if within window, else 'N'\n    adcm[\"TRTEMFL\"] = np.where(\n        dates_present & within_window, \"Y\", \"N\"\n    )\n\n    log.info(\n        \"  TRTEMFL distribution:\\n%s\",\n        adcm[\"TRTEMFL\"].value_counts().to_string(),\n    )\n\n    # \u2500\u2500 Medication duration \u2500\u2500\u2500\u2500\u2500\u2500\u2500\u2500\u2500\u2500\u2500\u2500\u2500\u2500\u2500\u2500\u2500\u2500\u2500\u2500\u2500\u2500\u2500\u2500\u2500\u2500\u2500\u2500\u2500\u2500\u2500\u2500\u2500\u2500\u2500\u2500\u2500\u2500\u2500\u2500\u2500\u2500\u2500\u2500\u2500\u2500\u2500\u2500\u2500\u2500\u2500\n    # SAS: if cmstdt ne . and cmendt ne . then cmdur = cmendt - cmstdt + 1\n    # SAS: else if cmstdt ne . and cmendt = . then cmdur = .  /* ongoing */\n    both_dates = adcm[\"CMSTDT\"].notna() & adcm[\"CMENDT\"].notna()\n    start_only = adcm[\"CMSTDT\"].notna() & adcm[\"CMENDT\"].isna()\n\n    # Duration in days (integer) \u2014 +1 inclusive of start day, mirrors SAS\n    adcm[\"CMDUR\"] = np.where(\n        both_dates,\n        (adcm[\"CMENDT\"] - adcm[\"CMSTDT\"]).dt.days + 1,\n        np.nan,       # ongoing or missing start \u2192 NaN (SAS missing '.')\n    )\n\n    # Ensure float (NaN requires float dtype; mirrors SAS numeric missing)\n    adcm[\"CMDUR\"] = adcm[\"CMDUR\"].astype(\"float64\")\n\n    # \u2500\u2500 Analysis start relative day (ASTDY) \u2500\u2500\u2500\u2500\u2500\u2500\u2500\u2500\u2500\u2500\u2500\u2500\u2500\u2500\u2500\u2500\u2500\u2500\u2500\u2500\u2500\u2500\u2500\u2500\u2500\u2500\u2500\u2500\u2500\u2500\u2500\u2500\u2500\u2500\u2500\n    # SAS: astdy = cmstdt - trtsdt + (cmstdt >= trtsdt)\n    # SAS date arithmetic: day 1 = first day of treatment (no day 0)\n    # (cmstdt >= trtsdt) adds 1 for post-baseline, keeping day -1/+1 convention\n    trtsdt_present = adcm[\"TRTSDT\"].notna() & adcm[\"CMSTDT\"].notna()\n\n    diff_days = (adcm[\"CMSTDT\"] - adcm[\"TRTSDT\"]).dt.days  # numeric difference\n\n    # SAS boolean (cmstdt >= trtsdt) \u2192 1 if True, 0 if False\n    post_flag = (adcm[\"CMSTDT\"] >= adcm[\"TRTSDT\"]).astype(int)\n\n    adcm[\"ASTDY\"] = np.where(\n        trtsdt_present,\n        diff_days + post_flag,\n        np.nan,\n    )\n    adcm[\"ASTDY\"] = adcm[\"ASTDY\"].astype(\"float64\")\n\n    # \u2500\u2500 Ongoing flag \u2500\u2500\u2500\u2500\u2500\u2500\u2500\u2500\u2500\u2500\u2500\u2500\u2500\u2500\u2500\u2500\u2500\u2500\u2500\u2500\u2500\u2500\u2500\u2500\u2500\u2500\u2500\u2500\u2500\u2500\u2500\u2500\u2500\u2500\u2500\u2500\u2500\u2500\u2500\u2500\u2500\u2500\u2500\u2500\u2500\u2500\u2500\u2500\u2500\u2500\u2500\u2500\u2500\u2500\u2500\u2500\u2500\u2500\n    # SAS: if cmendt = . then ongofl = 'Y'; else ongofl = 'N'\n    adcm[\"ONGOFL\"] = np.where(adcm[\"CMENDT\"].isna(), \"Y\", \"N\")\n\n    # \u2500\u2500 Variable labels (stored as dataset metadata) \u2500\u2500\u2500\u2500\u2500\u2500\u2500\u2500\u2500\u2500\u2500\u2500\u2500\u2500\u2500\u2500\u2500\u2500\u2500\u2500\u2500\u2500\u2500\u2500\u2500\u2500\n    # SAS: label trtemfl = '...' cmdur = '...' ...\n    adcm.attrs.update(\n        {\n            \"TRTEMFL_label\": \"Treatment Emergent Flag\",\n            \"CMDUR_label\":   \"Medication Duration (Days)\",\n            \"ASTDY_label\":   \"Analysis Start Relative Day\",\n            \"ONGOFL_label\":  \"Ongoing at End of Study Flag\",\n        }\n    )\n\n    # \u2500\u2500 Final sort \u2500\u2500\u2500\u2500\u2500\u2500\u2500\u2500\u2500\u2500\u2500\u2500\u2500\u2500\u2500\u2500\u2500\u2500\u2500\u2500\u2500\u2500\u2500\u2500\u2500\u2500\u2500\u2500\u2500\u2500\u2500\u2500\u2500\u2500\u2500\u2500\u2500\u2500\u2500\u2500\u2500\u2500\u2500\u2500\u2500\u2500\u2500\u2500\u2500\u2500\u2500\u2500\u2500\u2500\u2500\u2500\u2500\u2500\u2500\u2500\n    # SAS: proc sort data=adam.adcm; by usubjid cmstdt cmtrt;\n    adcm = adcm.sort_values(\n        [\"USUBJID\", \"CMSTDT\", \"CMTRT\"], na_position=\"last\"\n    ).reset_index(drop=True)\n\n    log.info(\"  ADCM final rows: %d\", len(adcm))\n    return adcm\n\n\n# =============================================================================\n# OUTPUT: Save ADCM dataset\n# SAS: data adam.adcm (written via libname)\n# =============================================================================\ndef save_adcm(adcm: pd.DataFrame, adam_path: Path) -> None:\n    \"\"\"Write ADCM to parquet (GxP-traceable, lossless) and CSV audit copy.\"\"\"\n    out_parquet = adam_path / \"adcm.parquet\"\n    out_csv     = adam_path / \"adcm_audit.csv\"\n\n    adcm.to_parquet(out_parquet, index=False, engine=\"pyarrow\")\n    adcm.to_csv(out_csv, index=False)\n\n    log.info(\"ADCM saved: %s (%d rows, %d cols)\", out_parquet, *adcm.shape)\n    log.info(\"Audit CSV : %s\", out_csv)\n\n\n# =============================================================================\n# FREQUENCY TABLES\n# SAS: proc freq data=adam.adcm; where trtemfl='Y'; tables atcgrp / order=freq;\n# [REQUIRES_MANUAL_REVIEW: TFL output] \u2014 reproduce counts only; formatting\n# requires a reporting layer (e.g. Jupyter, RTF writer, or SAS ODS RTF).\n# =============================================================================\ndef freq_tables(adcm: pd.DataFrame) -> None:\n    \"\"\"\n    Reproduce PROC FREQ output as pandas value_counts / crosstab.\n    # [REQUIRES_MANUAL_REVIEW: TFL output]\n    Formatted RTF/PDF output must be produced via a validated reporting tool.\n    \"\"\"\n    trtem = adcm.loc[adcm[\"TRTEMFL\"] == \"Y\"].copy()\n\n    log.info(\"Frequency table 1: ADCM \u2014 Treatment-Emergent Medications by ATC Group\")\n\n    # SAS: tables atcgrp / order=freq\n    freq1 = (\n        trtem[\"ATCGRP\"]\n        .value_counts(dropna=False)          # order=freq mirrors SAS default\n        .rename_axis(\"ATCGRP\")\n        .reset_index(name=\"COUNT\")\n    )\n    freq1[\"PERCENT\"] = (freq1[\"COUNT\"] / freq1[\"COUNT\"].sum() * 100).round(2)\n    print(\"\\n=== ADCM \u2014 Treatment-Emergent Medications by ATC Group ===\")\n    print(freq1.to_string(index=False))\n\n    log.info(\"Frequency table 2: ADCM \u2014 Medications by Treatment Arm and ATC Group\")\n\n    # SAS: tables armcd * atcgrp / list missing\n    # pd.crosstab with margins=False mirrors /list layout; dropna=False for /missing\n    freq2 = (\n        pd.crosstab(\n            trtem[\"ARMCD\"],\n            trtem[\"ATCGRP\"],\n            dropna=False,           # /missing \u2192 include NaN cells\n            margins=False,\n        )\n    )\n    print(\"\\n=== ADCM \u2014 Medications by Treatment Arm and ATC Group ===\")\n    print(freq2.to_string())\n\n\n# =============================================================================\n# MAIN PIPELINE\n# =============================================================================\ndef main() -> None:\n    log.info(\"=== ADCM pipeline START (BMN-999-001) ===\")\n\n    # Step 1: Prepare CM domain\n    cm_prep = prepare_cm(SDTM_PATH)\n\n    # Step 2: Merge with ADSL\n    adcm_merge = merge_with_adsl(cm_prep, ADAM_PATH)\n\n    # Step 3: Derive analysis variables\n    adcm = derive_adcm(adcm_merge)\n\n    # Output\n    save_adcm(adcm, ADAM_PATH)\n\n    # Frequency summaries\n    # [REQUIRES_MANUAL_REVIEW: TFL output]\n    freq_tables(adcm)\n\n    log.info(\"=== ADCM pipeline COMPLETE ===\")\n\n\nif __name__ == \"__main__\":\n    main()",
      "tfl_flagged": true
    },
    {
      "filename": "t_ae_summ.sas",
      "cosine_score": 0.6782,
      "sas_loc": 85,
      "py_loc": 181,
      "translation_time": 43.6,
      "validation_status": "valid",
      "correction_attempts": 0,
      "routing_decision": "REVIEW_REQUIRED",
      "routing_reason": "Medium cosine similarity (0.6782) \u2014 translation likely correct but requires reviewer confirmation",
      "python_code": "# Translated from: t_ae_summ.sas | ClinTranslate v4 Agentic\n# Study    : BMN-999-001\n# Purpose  : Table 14.3.1 \u2014 Adverse Events Summary\n# Author   : Clinical Data Engineering (SAS->Python translation)\n# Created  : 2024-03-01\n# [REQUIRES_MANUAL_REVIEW: TFL output] \u2014 PROC REPORT / ODS RTF blocks\n#   replaced with pandas DataFrame + CSV/Excel stub; final RTF rendering\n#   requires a downstream reporting tool (e.g., rpy2+officer, reportlab).\n#\n# 21 CFR Part 11 NOTE: All filtering and derivation steps are explicit and\n#   traceable. No silent row dropping or in-place modification is performed.\n#   All intermediate datasets are preserved for audit trail purposes.\n\nimport pandas as pd\nimport numpy as np\nimport os\n\n# \u2500\u2500 Configuration \u2500\u2500\u2500\u2500\u2500\u2500\u2500\u2500\u2500\u2500\u2500\u2500\u2500\u2500\u2500\u2500\u2500\u2500\u2500\u2500\u2500\u2500\u2500\u2500\u2500\u2500\u2500\u2500\u2500\u2500\u2500\u2500\u2500\u2500\u2500\u2500\u2500\u2500\u2500\u2500\u2500\u2500\u2500\u2500\u2500\u2500\u2500\u2500\u2500\u2500\u2500\u2500\u2500\u2500\u2500\u2500\u2500\u2500\u2500\u2500\n# SAS: libname adam '/data/bmn999/adam';\nADAM_PATH   = \"/data/bmn999/adam\"\nOUTPUT_PATH = \"/output/bmn999/tables\"\n\nADAE_FILE = os.path.join(ADAM_PATH, \"adae.csv\")   # adjust extension as needed\nADSL_FILE = os.path.join(ADAM_PATH, \"adsl.csv\")\n\nOUTPUT_CSV = os.path.join(OUTPUT_PATH, \"t_ae_summ.csv\")\n\n# \u2500\u2500 Load source datasets \u2500\u2500\u2500\u2500\u2500\u2500\u2500\u2500\u2500\u2500\u2500\u2500\u2500\u2500\u2500\u2500\u2500\u2500\u2500\u2500\u2500\u2500\u2500\u2500\u2500\u2500\u2500\u2500\u2500\u2500\u2500\u2500\u2500\u2500\u2500\u2500\u2500\u2500\u2500\u2500\u2500\u2500\u2500\u2500\u2500\u2500\u2500\u2500\u2500\u2500\u2500\u2500\u2500\u2500\n# SAS: proc sort data=adam.adae ...  / proc freq data=adam.adsl ...\nadae_raw = pd.read_csv(ADAE_FILE, dtype=str)   # read all as str; coerce below\nadsl_raw = pd.read_csv(ADSL_FILE, dtype=str)\n\n# Coerce numeric severity score; SAS variable AESEVN is numeric in source\n# 21 CFR Part 11: coerce explicitly \u2014 errors='coerce' surfaces bad data as NaN\nadae_raw[\"AESEVN\"] = pd.to_numeric(adae_raw[\"AESEVN\"], errors=\"coerce\")\n\n# \u2500\u2500 Step 1: Filter to treatment-emergent safety population \u2500\u2500\u2500\u2500\u2500\u2500\u2500\u2500\u2500\u2500\u2500\u2500\u2500\u2500\u2500\u2500\u2500\u2500\u2500\n# SAS: where trtemfl = 'Y' and saffl = 'Y'; by usubjid aedecod aestdtc;\nadae_te = (\n    adae_raw\n    .loc[\n        (adae_raw[\"TRTEMFL\"].str.strip() == \"Y\") &\n        (adae_raw[\"SAFFL\"].str.strip()   == \"Y\")\n    ]\n    .sort_values([\"USUBJID\", \"AEDECOD\", \"AESTDTC\"])   # mirrors SAS proc sort\n    .reset_index(drop=True)\n)\n\n# \u2500\u2500 Helper: first record per subject (mirrors SAS 'if first.usubjid') \u2500\u2500\u2500\u2500\u2500\u2500\u2500\u2500\n# SAS DATA step: by usubjid; if first.usubjid;\ndef first_per_subject(df: pd.DataFrame) -> pd.DataFrame:\n    \"\"\"Return one row per USUBJID \u2014 equivalent to SAS 'if first.usubjid'.\"\"\"\n    return (\n        df\n        .sort_values(\"USUBJID\")                        # ensure sort before dedup\n        .drop_duplicates(subset=\"USUBJID\", keep=\"first\")\n        .reset_index(drop=True)\n    )\n\n# \u2500\u2500 Any AE \u2500\u2500\u2500\u2500\u2500\u2500\u2500\u2500\u2500\u2500\u2500\u2500\u2500\u2500\u2500\u2500\u2500\u2500\u2500\u2500\u2500\u2500\u2500\u2500\u2500\u2500\u2500\u2500\u2500\u2500\u2500\u2500\u2500\u2500\u2500\u2500\u2500\u2500\u2500\u2500\u2500\u2500\u2500\u2500\u2500\u2500\u2500\u2500\u2500\u2500\u2500\u2500\u2500\u2500\u2500\u2500\u2500\u2500\u2500\u2500\u2500\u2500\u2500\u2500\u2500\u2500\u2500\n# SAS: data ae_any; set adae_te; by usubjid; if first.usubjid;\n#      category = 'Subjects with any AE';\nae_any = first_per_subject(adae_te).copy()\nae_any[\"CATEGORY\"] = \"Subjects with any AE\"\n\n# \u2500\u2500 Serious AEs \u2500\u2500\u2500\u2500\u2500\u2500\u2500\u2500\u2500\u2500\u2500\u2500\u2500\u2500\u2500\u2500\u2500\u2500\u2500\u2500\u2500\u2500\u2500\u2500\u2500\u2500\u2500\u2500\u2500\u2500\u2500\u2500\u2500\u2500\u2500\u2500\u2500\u2500\u2500\u2500\u2500\u2500\u2500\u2500\u2500\u2500\u2500\u2500\u2500\u2500\u2500\u2500\u2500\u2500\u2500\u2500\u2500\u2500\u2500\u2500\u2500\u2500\n# SAS: where aeser = 'Y';\nae_ser_filtered = adae_te.loc[adae_te[\"AESER\"].str.strip() == \"Y\"].copy()\nae_ser = first_per_subject(ae_ser_filtered)\nae_ser[\"CATEGORY\"] = \"Subjects with any SAE\"\n\n# \u2500\u2500 AEs leading to discontinuation \u2500\u2500\u2500\u2500\u2500\u2500\u2500\u2500\u2500\u2500\u2500\u2500\u2500\u2500\u2500\u2500\u2500\u2500\u2500\u2500\u2500\u2500\u2500\u2500\u2500\u2500\u2500\u2500\u2500\u2500\u2500\u2500\u2500\u2500\u2500\u2500\u2500\u2500\u2500\u2500\u2500\u2500\u2500\n# SAS: where aeacn = 'DRUG WITHDRAWN';\nae_disc_filtered = adae_te.loc[\n    adae_te[\"AEACN\"].str.strip() == \"DRUG WITHDRAWN\"\n].copy()\nae_disc = first_per_subject(ae_disc_filtered)\nae_disc[\"CATEGORY\"] = \"AE leading to discontinuation\"\n\n# \u2500\u2500 Grade 3+ AEs \u2500\u2500\u2500\u2500\u2500\u2500\u2500\u2500\u2500\u2500\u2500\u2500\u2500\u2500\u2500\u2500\u2500\u2500\u2500\u2500\u2500\u2500\u2500\u2500\u2500\u2500\u2500\u2500\u2500\u2500\u2500\u2500\u2500\u2500\u2500\u2500\u2500\u2500\u2500\u2500\u2500\u2500\u2500\u2500\u2500\u2500\u2500\u2500\u2500\u2500\u2500\u2500\u2500\u2500\u2500\u2500\u2500\u2500\u2500\u2500\u2500\n# SAS: where aesevn >= 3;\n# 21 CFR Part 11: NaN rows from coerce step are excluded by >= comparison\nae_gr3_filtered = adae_te.loc[adae_te[\"AESEVN\"] >= 3].copy()\nae_gr3 = first_per_subject(ae_gr3_filtered)\nae_gr3[\"CATEGORY\"] = \"Grade 3 or higher AE\"\n\n# \u2500\u2500 Stack all category datasets \u2500\u2500\u2500\u2500\u2500\u2500\u2500\u2500\u2500\u2500\u2500\u2500\u2500\u2500\u2500\u2500\u2500\u2500\u2500\u2500\u2500\u2500\u2500\u2500\u2500\u2500\u2500\u2500\u2500\u2500\u2500\u2500\u2500\u2500\u2500\u2500\u2500\u2500\u2500\u2500\u2500\u2500\u2500\u2500\u2500\u2500\u2500\n# SAS: data ae_all; set ae_any ae_ser ae_disc ae_gr3;\nae_all = pd.concat(\n    [ae_any, ae_ser, ae_disc, ae_gr3],\n    ignore_index=True\n)\n\n# Preserve only columns required downstream to avoid unintended carry-through\nae_all = ae_all[[\"USUBJID\", \"ARMCD\", \"CATEGORY\"]].copy()\n\n# \u2500\u2500 Step 2: Denominator from ADSL \u2500\u2500\u2500\u2500\u2500\u2500\u2500\u2500\u2500\u2500\u2500\u2500\u2500\u2500\u2500\u2500\u2500\u2500\u2500\u2500\u2500\u2500\u2500\u2500\u2500\u2500\u2500\u2500\u2500\u2500\u2500\u2500\u2500\u2500\u2500\u2500\u2500\u2500\u2500\u2500\u2500\u2500\u2500\u2500\n# SAS: proc freq data=adam.adsl noprint; where saffl='Y';\n#      tables armcd / out=denom (rename=(count=n_total));\nadsl_safe = adsl_raw.loc[adsl_raw[\"SAFFL\"].str.strip() == \"Y\"].copy()\n\ndenom = (\n    adsl_safe\n    .groupby(\"ARMCD\", as_index=False)\n    .agg(N_TOTAL=(\"USUBJID\", \"count\"))    # SAS rename=(count=n_total)\n)\n\n# \u2500\u2500 Step 3: Subject counts by category and arm \u2500\u2500\u2500\u2500\u2500\u2500\u2500\u2500\u2500\u2500\u2500\u2500\u2500\u2500\u2500\u2500\u2500\u2500\u2500\u2500\u2500\u2500\u2500\u2500\u2500\u2500\u2500\u2500\u2500\u2500\u2500\n# SAS: proc freq data=ae_all noprint;\n#      tables category * armcd / out=ae_counts (rename=(count=n_subj));\nae_counts = (\n    ae_all\n    .groupby([\"CATEGORY\", \"ARMCD\"], as_index=False)\n    .agg(N_SUBJ=(\"USUBJID\", \"count\"))     # SAS rename=(count=n_subj)\n)\n\n# \u2500\u2500 Step 4: Merge counts with denominator and compute percentages \u2500\u2500\u2500\u2500\u2500\u2500\u2500\u2500\u2500\u2500\u2500\u2500\u2500\n# SAS: merge ae_counts (in=inAE) denom (in=inDEN); by armcd; if inAE;\n# Left-join preserves all AE category rows (mirrors 'if inAE')\nae_pct = ae_counts.merge(\n    denom,\n    on=\"ARMCD\",\n    how=\"left\"    # inAE = left-side keep; rows with no denom yield NaN pct\n)\n\n# 21 CFR Part 11: flag any ARMCD in ae_counts missing from denom \u2014 do not\n#   silently compute a percentage on a missing denominator.\nmissing_denom = ae_pct.loc[ae_pct[\"N_TOTAL\"].isna(), \"ARMCD\"].unique()\nif len(missing_denom) > 0:\n    raise ValueError(\n        f\"[AUDIT] Denominator missing for ARMCD(s): {missing_denom.tolist()}. \"\n        \"Resolve ADSL/ADAE ARMCD mismatch before proceeding.\"\n    )\n\n# SAS: pct = (n_subj / n_total) * 100;\nae_pct[\"PCT\"] = (ae_pct[\"N_SUBJ\"] / ae_pct[\"N_TOTAL\"]) * 100\n\n# SAS: pct_fmt = put(n_subj, 3.) || ' (' || put(pct, 5.1) || '%)';\n# Mirrors SAS format: integer count + one-decimal percent in parentheses\nae_pct[\"PCT_FMT\"] = (\n    ae_pct[\"N_SUBJ\"].astype(int).astype(str)\n    + \" (\"\n    + ae_pct[\"PCT\"].map(lambda x: f\"{x:5.1f}\").str.strip()\n    + \"%)\"\n)\n\n# \u2500\u2500 Step 5: Pivot for display (mirrors PROC REPORT column armcd, pct_fmt) \u2500\u2500\u2500\u2500\n# SAS: column category armcd, pct_fmt;\n#   \u2014 ARMCD values become column headers; CATEGORY becomes row index\nae_display = ae_pct.pivot(\n    index=\"CATEGORY\",\n    columns=\"ARMCD\",\n    values=\"PCT_FMT\"\n).reset_index()\n\n# Restore preferred row order to match SAS SET stacking order\ncategory_order = [\n    \"Subjects with any AE\",\n    \"Subjects with any SAE\",\n    \"AE leading to discontinuation\",\n    \"Grade 3 or higher AE\",\n]\nae_display[\"CATEGORY\"] = pd.Categorical(\n    ae_display[\"CATEGORY\"],\n    categories=category_order,\n    ordered=True\n)\nae_display = ae_display.sort_values(\"CATEGORY\").reset_index(drop=True)\n\n# Rename index column to mirror SAS PROC REPORT label\nae_display = ae_display.rename(columns={\"CATEGORY\": \"AE Category\"})\n\n# Fill missing cells (arm had zero subjects in a category) with '  0 (  0.0%)'\nae_display = ae_display.fillna(\"0 (  0.0%)\")\n\n# \u2500\u2500 Step 6: Write output \u2500\u2500\u2500\u2500\u2500\u2500\u2500\u2500\u2500\u2500\u2500\u2500\u2500\u2500\u2500\u2500\u2500\u2500\u2500\u2500\u2500\u2500\u2500\u2500\u2500\u2500\u2500\u2500\u2500\u2500\u2500\u2500\u2500\u2500\u2500\u2500\u2500\u2500\u2500\u2500\u2500\u2500\u2500\u2500\u2500\u2500\u2500\u2500\u2500\u2500\u2500\u2500\u2500\u2500\n# [REQUIRES_MANUAL_REVIEW: TFL output]\n#   SAS ODS RTF / PROC REPORT replaced with CSV stub below.\n#   Final RTF/PDF rendering must be implemented via an approved reporting tool.\n#   Metadata rows below mirror SAS TITLE/FOOTNOTE statements for traceability.\n\nos.makedirs(OUTPUT_PATH, exist_ok=True)\n\n# Build header metadata mirroring SAS TITLE statements\ntitle_lines = [\n    \"Study: BMN-999-001\",\n    \"Table 14.3.1\",\n    \"Summary of Treatment-Emergent Adverse Events\",\n    \"Safety Population\",\n]\n\n# Build footnote metadata mirroring SAS FOOTNOTE statements\nfootnote_lines = [\n    \"AE=Adverse Event; SAE=Serious Adverse Event; \"\n    \"N=number of subjects in safety population\",\n    \"Percentages based on number of subjects in safety population \"\n    \"per treatment arm\",\n]\n\n# Write CSV with title/footnote wrapper for traceability\nwith open(OUTPUT_CSV, \"w\", newline=\"\") as fh:\n    for line in title_lines:\n        fh.write(f\"# {line}\\n\")\n    fh.write(\"#\\n\")\n\nae_display.to_csv(OUTPUT_CSV, mode=\"a\", index=False)\n\nwith open(OUTPUT_CSV, \"a\", newline=\"\") as fh:\n    fh.write(\"#\\n\")\n    for line in footnote_lines:\n        fh.write(f\"# {line}\\n\")\n\nprint(f\"[INFO] AE Summary table written to: {OUTPUT_CSV}\")\nprint(ae_display.to_string(index=False))",
      "tfl_flagged": true
    },
    {
      "filename": "adsl.sas",
      "cosine_score": 0.575,
      "sas_loc": 90,
      "py_loc": 291,
      "translation_time": 59.7,
      "validation_status": "valid",
      "correction_attempts": 0,
      "routing_decision": "REVIEW_REQUIRED",
      "routing_reason": "Medium cosine similarity (0.575) \u2014 translation likely correct but requires reviewer confirmation",
      "python_code": "# Translated from: adsl.sas | ClinTranslate v4 Agentic\n# Study    : BMN-999-001\n# Purpose  : Create ADSL - Subject Level Analysis Dataset\n# Author   : Clinical Data Engineering (Python translation)\n# Created  : 2024-01-15\n# Translator Notes:\n#   - SAS libname references replaced with explicit file paths; update as needed\n#   - SAS date numerics (days since 1960-01-01) converted to pandas datetime\n#   - proc freq summary preserved as pandas crosstab\n#   - 21 CFR Part 11: no silent modification; all derivations are explicit and logged\n#   - Variable names, labels, and logic preserved exactly per CDISC ADaM spec\n\nimport pandas as pd\nimport numpy as np\nimport logging\nfrom pathlib import Path\n\n# ---------------------------------------------------------------------------\n# Logging setup \u2014 GxP traceability: every transformation step is logged\n# ---------------------------------------------------------------------------\nlogging.basicConfig(\n    level=logging.INFO,\n    format=\"%(asctime)s | %(levelname)s | %(message)s\",\n    datefmt=\"%Y-%m-%d %H:%M:%S\",\n)\nlog = logging.getLogger(__name__)\n\n# ---------------------------------------------------------------------------\n# Path configuration \u2014 mirrors SAS libname declarations\n# libname adam '/data/bmn999/adam'\n# libname sdtm '/data/bmn999/sdtm'\n# ---------------------------------------------------------------------------\nSDTM_PATH = Path(\"/data/bmn999/sdtm\")\nADAM_PATH = Path(\"/data/bmn999/adam\")\nADAM_PATH.mkdir(parents=True, exist_ok=True)\n\n# ---------------------------------------------------------------------------\n# Variable label dictionary \u2014 mirrors SAS LABEL statements\n# Used for documentation and downstream metadata; no silent renaming applied\n# ---------------------------------------------------------------------------\nADSL_LABELS = {\n    \"agegr1\": \"Age Group\",\n    \"bmi\":    \"Body Mass Index\",\n    \"bmigrp\": \"BMI Group\",\n    \"compfl\": \"Completor Flag\",\n    \"discrs\": \"Discontinuation Reason\",\n    \"trtsdt\": \"Date of First Study Treatment\",\n    \"trtedt\": \"Date of Last Study Treatment\",\n    \"trtdur\": \"Treatment Duration (Days)\",\n    \"saffl\":  \"Safety Population Flag\",\n    \"ittfl\":  \"ITT Population Flag\",\n}\n\n# ===========================================================================\n# Step 1: Base population from DM \u2014 mirrors: data adsl_base; set sdtm.dm;\n# ===========================================================================\nlog.info(\"Step 1: Loading DM domain and deriving base variables\")\n\ndm = pd.read_sas(SDTM_PATH / \"dm.sas7bdat\", encoding=\"utf-8\")\n\n# Preserve CDISC variable names exactly \u2014 no renaming\n# Normalise column names to uppercase to match SDTM spec\ndm.columns = dm.columns.str.upper()\n\nadsl_base = dm.copy()\n\n# ---------------------------------------------------------------------------\n# Age grouping \u2014 mirrors SAS if/else if ladder on AGE\n# SAS: if age < 18 then agegr1 = '<18'; ...\n# ---------------------------------------------------------------------------\nconditions_age = [\n    adsl_base[\"AGE\"].lt(18),\n    adsl_base[\"AGE\"].between(18, 39, inclusive=\"both\"),\n    adsl_base[\"AGE\"].between(40, 64, inclusive=\"both\"),\n    adsl_base[\"AGE\"].ge(65),\n]\nchoices_age = [\"<18\", \"18-39\", \"40-64\", \">=65\"]\n\n# np.select mirrors SAS cascading if/else; default=np.nan signals unmatched\nadsl_base[\"AGEGR1\"] = np.select(conditions_age, choices_age, default=np.nan)\n\n# ---------------------------------------------------------------------------\n# BMI calculation \u2014 mirrors SAS: bmi = weight / ((height/100) ** 2)\n# Guard: height > 0 and weight > 0; else bmi = . (SAS missing \u2192 np.nan)\n# ---------------------------------------------------------------------------\nvalid_anthro = adsl_base[\"HEIGHT\"].gt(0) & adsl_base[\"WEIGHT\"].gt(0)\n\nadsl_base[\"BMI\"] = np.where(\n    valid_anthro,\n    adsl_base[\"WEIGHT\"] / ((adsl_base[\"HEIGHT\"] / 100) ** 2),\n    np.nan,                                  # SAS missing value equivalent\n)\n\n# ---------------------------------------------------------------------------\n# BMI grouping \u2014 mirrors SAS if/else if ladder on BMI\n# SAS: else bmigrp = 'Missing' catches null/unmatchable rows\n# ---------------------------------------------------------------------------\nconditions_bmi = [\n    adsl_base[\"BMI\"].lt(18.5),\n    adsl_base[\"BMI\"].between(18.5, 24.999999, inclusive=\"both\"),\n    adsl_base[\"BMI\"].between(25.0, 29.999999, inclusive=\"both\"),\n    adsl_base[\"BMI\"].ge(30),\n]\nchoices_bmi = [\"Underweight\", \"Normal\", \"Overweight\", \"Obese\"]\n\nadsl_base[\"BMIGRP\"] = np.select(\n    conditions_bmi, choices_bmi, default=\"Missing\"   # 'Missing' mirrors SAS else\n)\n\n# Force 'Missing' where BMI itself is NaN (height/weight were invalid)\nadsl_base.loc[adsl_base[\"BMI\"].isna(), \"BMIGRP\"] = \"Missing\"\n\nlog.info(\n    \"Step 1 complete: %d subjects loaded from DM; AGEGR1 and BMIGRP derived\",\n    len(adsl_base),\n)\n\n# ===========================================================================\n# Step 2: Merge disposition \u2014 mirrors proc sort + data adsl_disp merge\n# ===========================================================================\nlog.info(\"Step 2: Loading DS domain and merging disposition\")\n\nds_raw = pd.read_sas(SDTM_PATH / \"ds.sas7bdat\", encoding=\"utf-8\")\nds_raw.columns = ds_raw.columns.str.upper()\n\n# Subset DS: where=(dscat='DISPOSITION EVENT') \u2014 mirrors SAS WHERE option\n# 21 CFR Part 11: filter is explicit, no rows silently dropped without logging\nds_disp = ds_raw.loc[\n    ds_raw[\"DSCAT\"].str.strip().str.upper() == \"DISPOSITION EVENT\",\n    [\"USUBJID\", \"DSDECOD\", \"DSSTDTC\"],      # mirrors SAS keep= option\n].copy()\n\nn_ds_before = len(ds_raw)\nn_ds_after  = len(ds_disp)\nlog.info(\n    \"DS filtered to DISPOSITION EVENT: %d \u2192 %d records\",\n    n_ds_before, n_ds_after,\n)\n\n# Sort both datasets by USUBJID \u2014 mirrors proc sort\nadsl_sorted = adsl_base.sort_values(\"USUBJID\").reset_index(drop=True)\nds_sorted   = ds_disp.sort_values(\"USUBJID\").reset_index(drop=True)\n\n# Left merge mirrors SAS: merge adsl_sorted(in=inDM) ds_sorted(in=inDS); if inDM;\n# 'left' join retains all DM subjects; DS subjects without DM are excluded\nadsl_disp = adsl_sorted.merge(\n    ds_sorted,\n    on=\"USUBJID\",\n    how=\"left\",                              # if inDM \u2014 keep all DM rows\n    indicator=True,                          # used to derive inEX equivalent later\n)\n\n# ---------------------------------------------------------------------------\n# Completion flag \u2014 mirrors SAS: if dsdecod = 'COMPLETED' then compfl = 'Y'\n# ---------------------------------------------------------------------------\nadsl_disp[\"DSDECOD\"] = adsl_disp[\"DSDECOD\"].fillna(\"\").str.strip()\n\nadsl_disp[\"COMPFL\"] = np.where(\n    adsl_disp[\"DSDECOD\"].str.upper() == \"COMPLETED\",\n    \"Y\",\n    \"N\",\n)\n\n# ---------------------------------------------------------------------------\n# Discontinuation reason \u2014 mirrors SAS:\n#   if dsdecod ne 'COMPLETED' and dsdecod ne '' then discrs = dsdecod\n# ---------------------------------------------------------------------------\nnot_completed = (\n    adsl_disp[\"DSDECOD\"].str.upper().ne(\"COMPLETED\") &\n    adsl_disp[\"DSDECOD\"].ne(\"\")\n)\n\nadsl_disp[\"DISCRS\"] = np.where(\n    not_completed,\n    adsl_disp[\"DSDECOD\"],\n    np.nan,                                  # SAS missing for subjects who completed\n)\n\n# Drop merge indicator \u2014 no longer needed after flag derivations\nadsl_disp = adsl_disp.drop(columns=[\"_merge\"])\n\nlog.info(\n    \"Step 2 complete: COMPFL derived \u2014 Y=%d, N=%d\",\n    adsl_disp[\"COMPFL\"].eq(\"Y\").sum(),\n    adsl_disp[\"COMPFL\"].eq(\"N\").sum(),\n)\n\n# ===========================================================================\n# Step 3: Merge exposure for treatment dates\n# Mirrors: proc sort data=sdtm.ex out=ex_first; by usubjid exstdtc;\n# ===========================================================================\nlog.info(\"Step 3: Loading EX domain and deriving treatment dates\")\n\nex_raw = pd.read_sas(SDTM_PATH / \"ex.sas7bdat\", encoding=\"utf-8\")\nex_raw.columns = ex_raw.columns.str.upper()\n\n# Sort by USUBJID then EXSTDTC \u2014 mirrors proc sort by usubjid exstdtc\nex_sorted = ex_raw.sort_values([\"USUBJID\", \"EXSTDTC\"]).reset_index(drop=True)\n\n# ---------------------------------------------------------------------------\n# Derive TRTSDT and TRTEDT \u2014 mirrors SAS retain + first./last. pattern:\n#   if first.usubjid then trtsdt = input(exstdtc, yymmdd10.)\n#   if last.usubjid  then trtedt = input(exendtc, yymmdd10.)\n#\n# groupby + agg replicates the first/last DOT logic exactly:\n#   first row per subject \u2192 TRTSDT (earliest start)\n#   last  row per subject \u2192 TRTEDT (latest end)\n# ---------------------------------------------------------------------------\nex_dates = (\n    ex_sorted\n    .groupby(\"USUBJID\", sort=False)\n    .agg(\n        TRTSDT_RAW=(\"EXSTDTC\", \"first\"),    # first.usubjid \u2192 trtsdt\n        TRTEDT_RAW=(\"EXENDTC\", \"last\"),     # last.usubjid  \u2192 trtedt\n    )\n    .reset_index()\n)\n\n# Convert ISO 8601 strings to datetime \u2014 mirrors SAS input(..., yymmdd10.)\n# errors='coerce' \u2192 NaT for unparseable values (equivalent to SAS missing)\nex_dates[\"TRTSDT\"] = pd.to_datetime(\n    ex_dates[\"TRTSDT_RAW\"], format=\"%Y-%m-%d\", errors=\"coerce\"\n)\nex_dates[\"TRTEDT\"] = pd.to_datetime(\n    ex_dates[\"TRTEDT_RAW\"], format=\"%Y-%m-%d\", errors=\"coerce\"\n)\n\nex_dates = ex_dates[[\"USUBJID\", \"TRTSDT\", \"TRTEDT\"]].copy()\n\nlog.info(\n    \"Step 3: EX dates derived for %d subjects\", len(ex_dates)\n)\n\n# ===========================================================================\n# Step 4: Final ADSL merge \u2014 mirrors: data adam.adsl; merge adsl_disp ex_dates;\n# ===========================================================================\nlog.info(\"Step 4: Final ADSL merge and population flag derivation\")\n\n# Left merge: if inBase \u2014 retain all disposition subjects regardless of EX\nadsl = adsl_disp.merge(\n    ex_dates,\n    on=\"USUBJID\",\n    how=\"left\",\n    indicator=True,                          # tracks inEX equivalent\n)\n\n# ---------------------------------------------------------------------------\n# Treatment duration \u2014 mirrors SAS:\n#   if trtsdt ne . and trtedt ne . then trtdur = trtedt - trtsdt + 1\n# pandas timedelta.days + 1 exactly mirrors SAS date arithmetic\n# ---------------------------------------------------------------------------\nboth_dates_valid = adsl[\"TRTSDT\"].notna() & adsl[\"TRTEDT\"].notna()\n\nadsl[\"TRTDUR\"] = np.where(\n    both_dates_valid,\n    (adsl[\"TRTEDT\"] - adsl[\"TRTSDT\"]).dt.days + 1,   # +1 mirrors SAS inclusive count\n    np.nan,\n)\n\n# ---------------------------------------------------------------------------\n# Safety population flag \u2014 mirrors SAS: if inEX then saffl = 'Y'; else 'N'\n# _merge == 'both' means the subject had an EX record (inEX = 1 in SAS)\n# ---------------------------------------------------------------------------\nadsl[\"SAFFL\"] = np.where(\n    adsl[\"_merge\"] == \"both\",\n    \"Y\",\n    \"N\",\n)\n\n# ---------------------------------------------------------------------------\n# ITT population flag \u2014 mirrors SAS: if randdt ne . then ittfl = 'Y'\n# RANDDT is expected to originate from DM; guard with hasattr-style check\n# ---------------------------------------------------------------------------\nif \"RANDDT\" in adsl.columns:\n    adsl[\"ITTFL\"] = np.where(\n        adsl[\"RANDDT\"].notna(),\n        \"Y\",\n        \"N\",\n    )\nelse:\n    # 21 CFR Part 11: do not silently default; log the absence and set to 'N'\n    log.warning(\n        \"RANDDT not found in DM domain \u2014 ITTFL set to 'N' for all subjects. \"\n        \"Verify DM source dataset contains randomisation date.\"\n    )\n    adsl[\"ITTFL\"] = \"N\"\n\n# Drop internal merge indicator \u2014 not part of ADSL spec\nadsl = adsl.drop(columns=[\"_merge\"])\n\n# ---------------------------------------------------------------------------\n# Final sort by USUBJID \u2014 mirrors: proc sort data=adam.adsl; by usubjid;\n# ---------------------------------------------------------------------------\nadsl = adsl.sort_values(\"USUBJID\").reset_index(drop=True)\n\n# ---------------------------------------------------------------------------\n# Attach label metadata as a DataFrame attribute for downstream documentation\n# This mirrors SAS LABEL statement semantics in a pandas-compatible way\n# ---------------------------------------------------------------------------\nadsl.attrs[\"variable_labels\"] = ADSL_LABELS\nadsl.attrs[\"dataset_label\"]   = \"Subject-Level Analysis Dataset\"\nadsl.attrs[\"study\"]           = \"BMN-999-001\"\n\nlog.info(\n    \"Step 4 complete: ADSL contains %d subjects, %d variables\",\n    len(adsl), len(adsl.columns),\n)\n\n# ===========================================================================\n# Step 5: Write output dataset \u2014 mirrors: data adam.adsl (SAS libname write)\n# ===========================================================================\noutput_path = ADAM_PATH / \"adsl.parquet\"\nadsl.to_parquet(output_path, index=False, engine=\"pyarrow\")\nlog.info(\"ADSL written to %s\", output_path)\n\n# Optionally write CSV for QC traceability\nadsl.to_csv(ADAM_PATH / \"adsl_qc.csv\", index=False)\nlog.info(\"ADSL QC CSV written to %s\", ADAM_PATH / \"adsl_qc.csv\")\n\n# ===========================================================================\n# Step 6: Population summary \u2014 mirrors proc freq saffl * ittfl * compfl\n# SAS: tables saffl * ittfl * compfl / list missing;\n# ===========================================================================\nlog.info(\"Step 6: Generating ADSL population summary (mirrors PROC FREQ)\")\n\nsummary = (\n    adsl\n    .groupby([\"SAFFL\", \"ITTFL\", \"COMPFL\"], dropna=False)   # missing=include rows\n    .size()\n    .reset_index(name=\"COUNT\")\n    .sort_values([\"SAFFL\", \"ITTFL\", \"COMPFL\"])\n)\n\n# Compute percentage column \u2014 mirrors / list option cumulative context\nsummary[\"PCT\"] = (summary[\"COUNT\"] / summary[\"COUNT\"].sum() * 100).round(2)\n\nprint(\"\\n\" + \"=\" * 60)\nprint(\"ADSL Population Summary \u2014 BMN-999-001\")\nprint(\"=\" * 60)\nprint(summary.to_string(index=False))\nprint(\"=\" * 60 + \"\\n\")\n\nlog.info(\"ADSL pipeline complete.\")",
      "tfl_flagged": false
    },
    {
      "filename": "sdtm_lb.sas",
      "cosine_score": 0.5482,
      "sas_loc": 74,
      "py_loc": 305,
      "translation_time": 63.2,
      "validation_status": "valid",
      "correction_attempts": 0,
      "routing_decision": "REJECTED",
      "routing_reason": "Low cosine similarity (0.5482) \u2014 insufficient knowledge base coverage; manual translation recommended",
      "python_code": "# Translated from: sdtm_lb.sas | ClinTranslate v4 Agentic\n# Study    : BMN-999-001\n# Purpose  : SDTM LB Domain \u2014 Laboratory Results\n# Source   : Clinical Data Engineering\n# Created  : 2024-01-10\n# Translated: ClinTranslate v4 Agentic\n#\n# 21 CFR Part 11 Notice:\n#   - No silent data modification: all transformations are logged via assertions\n#     and explicit mapping tables.\n#   - Input row counts are verified against output row counts where applicable.\n#   - Unmapped test codes are preserved (not dropped) with a warning logged.\n\nimport pandas as pd\nimport numpy as np\nimport logging\nimport sys\n\n# ---------------------------------------------------------------------------\n# Logging configuration \u2014 supports audit trail requirements (21 CFR Part 11)\n# ---------------------------------------------------------------------------\nlogging.basicConfig(\n    level=logging.INFO,\n    format=\"%(asctime)s | %(levelname)s | %(message)s\",\n    handlers=[logging.StreamHandler(sys.stdout)],\n)\nlog = logging.getLogger(__name__)\n\n# ---------------------------------------------------------------------------\n# Path configuration \u2014 mirrors SAS libname statements\n#   SAS: libname sdtm '/data/bmn999/sdtm';\n#   SAS: libname raw  '/data/bmn999/raw';\n# ---------------------------------------------------------------------------\nRAW_LAB_PATH  = \"/data/bmn999/raw/lab_results.csv\"   # raw.lab_results\nSDTM_LB_PATH  = \"/data/bmn999/sdtm/lb.csv\"           # sdtm.lb\n\nSTUDY_ID = \"BMN-999-001\"\n\n# ===========================================================================\n# Step 1: Read raw lab data\n#   SAS: data lb_raw; set raw.lab_results; ...\n# ===========================================================================\nlog.info(\"Step 1: Reading raw lab data from %s\", RAW_LAB_PATH)\n\n# SAS: set raw.lab_results\nlb_raw = pd.read_csv(RAW_LAB_PATH)\ninput_row_count = len(lb_raw)\nlog.info(\"Raw lab_results loaded: %d rows\", input_row_count)\n\n# ---------------------------------------------------------------------------\n# Standardize test codes to CDISC LBTESTCD\n#   SAS: select (upcase(test_name)); when (...) do; lbtestcd = ...; lbtest = ...; end;\n#\n# The mapping table mirrors each SAS WHEN branch exactly.\n# Keys are uppercase test_name values (replicating upcase(test_name)).\n# ---------------------------------------------------------------------------\nTESTCODE_MAP = {\n    # SAS: when ('HEMOGLOBIN', 'HGB')\n    \"HEMOGLOBIN\": (\"HGB\",  \"Hemoglobin\"),\n    \"HGB\":        (\"HGB\",  \"Hemoglobin\"),\n    # SAS: when ('HEMATOCRIT', 'HCT')\n    \"HEMATOCRIT\": (\"HCT\",  \"Hematocrit\"),\n    \"HCT\":        (\"HCT\",  \"Hematocrit\"),\n    # SAS: when ('PLATELETS', 'PLT')\n    \"PLATELETS\":  (\"PLAT\", \"Platelets\"),\n    \"PLT\":        (\"PLAT\", \"Platelets\"),\n    # SAS: when ('WBC', 'LEUKOCYTES')\n    \"WBC\":        (\"WBC\",  \"Leukocytes\"),\n    \"LEUKOCYTES\": (\"WBC\",  \"Leukocytes\"),\n    # SAS: when ('CREATININE', 'CREAT')\n    \"CREATININE\": (\"CREAT\", \"Creatinine\"),\n    \"CREAT\":      (\"CREAT\", \"Creatinine\"),\n    # SAS: when ('ALT', 'SGPT')\n    \"ALT\":        (\"ALT\",  \"Alanine Aminotransferase\"),\n    \"SGPT\":       (\"ALT\",  \"Alanine Aminotransferase\"),\n    # SAS: when ('AST', 'SGOT')\n    \"AST\":        (\"AST\",  \"Aspartate Aminotransferase\"),\n    \"SGOT\":       (\"AST\",  \"Aspartate Aminotransferase\"),\n    # SAS: when ('GLUCOSE', 'GLUC')\n    \"GLUCOSE\":    (\"GLUC\", \"Glucose\"),\n    \"GLUC\":       (\"GLUC\", \"Glucose\"),\n}\n\n# Uppercase test_name to replicate SAS upcase() \u2014 applied before mapping\nlb_raw[\"_test_upper\"] = lb_raw[\"test_name\"].str.strip().str.upper()\n\n# SAS: otherwise do; lbtestcd = upcase(test_name); lbtest = test_name; end;\n# Default (otherwise) branch: LBTESTCD = uppercase original, LBTEST = raw value\nlb_raw[\"lbtestcd\"] = lb_raw[\"_test_upper\"].map(\n    lambda x: TESTCODE_MAP[x][0] if x in TESTCODE_MAP else x\n)\nlb_raw[\"lbtest\"] = lb_raw.apply(\n    lambda row: (\n        TESTCODE_MAP[row[\"_test_upper\"]][1]\n        if row[\"_test_upper\"] in TESTCODE_MAP\n        else row[\"test_name\"]              # SAS: lbtest = test_name (otherwise)\n    ),\n    axis=1,\n)\n\n# Log unmapped test codes \u2014 21 CFR Part 11: no silent passthrough without audit\nunmapped_mask = ~lb_raw[\"_test_upper\"].isin(TESTCODE_MAP)\nif unmapped_mask.any():\n    unmapped_vals = lb_raw.loc[unmapped_mask, \"_test_upper\"].unique().tolist()\n    log.warning(\n        \"Unmapped test_name values (SAS OTHERWISE branch applied): %s\",\n        unmapped_vals,\n    )\n\n# ---------------------------------------------------------------------------\n# Standardize units\n#   SAS: lborresu = strip(unit);\n#   SAS: if / else if chain for lbstresu\n# ---------------------------------------------------------------------------\n# SAS: lborresu = strip(unit)\nlb_raw[\"lborresu\"] = lb_raw[\"unit\"].str.strip()\n\n# SAS: if lborresu = 'g/dL' then lbstresu = 'g/dL';\n# SAS: else if lborresu in ('U/L', 'IU/L') then lbstresu = 'U/L';\n# SAS: else if lborresu = 'mg/dL' then lbstresu = 'mg/dL';\n# SAS: else lbstresu = lborresu;\ndef map_lbstresu(lborresu):\n    \"\"\"Mirror SAS if/else if/else unit standardization chain.\"\"\"\n    if lborresu == \"g/dL\":\n        return \"g/dL\"\n    elif lborresu in (\"U/L\", \"IU/L\"):\n        return \"U/L\"\n    elif lborresu == \"mg/dL\":\n        return \"mg/dL\"\n    else:\n        return lborresu  # SAS: else lbstresu = lborresu\n\nlb_raw[\"lbstresu\"] = lb_raw[\"lborresu\"].map(map_lbstresu)\n\n# ---------------------------------------------------------------------------\n# Result variables\n#   SAS: lborres  = strip(result_text);\n#   SAS: lbstresn = input(result_numeric, best12.);   \u2014 numeric coercion\n#   SAS: lbstresc = strip(result_text);\n# ---------------------------------------------------------------------------\n# SAS: lborres = strip(result_text)\nlb_raw[\"lborres\"] = lb_raw[\"result_text\"].str.strip()\n\n# SAS: lbstresn = input(result_numeric, best12.)\n# pd.to_numeric with errors='coerce' replicates SAS INPUT() invalid\u2192missing (.)\nlb_raw[\"lbstresn\"] = pd.to_numeric(lb_raw[\"result_numeric\"], errors=\"coerce\")\n\n# SAS: lbstresc = strip(result_text)\nlb_raw[\"lbstresc\"] = lb_raw[\"result_text\"].str.strip()\n\n# ---------------------------------------------------------------------------\n# Normal range flags\n#   SAS: if lbstresn ne . then do;\n#          if lbstresn < low_normal  then lbnrind = 'LOW';\n#          else if lbstresn > high_normal then lbnrind = 'HIGH';\n#          else lbnrind = 'NORMAL';\n#        end;\n# ---------------------------------------------------------------------------\ndef compute_lbnrind(row):\n    \"\"\"\n    SAS: if lbstresn ne . \u2014 only assign lbnrind when numeric result is non-missing.\n    Returns NaN (SAS missing character) when lbstresn is missing.\n    \"\"\"\n    if pd.isna(row[\"lbstresn\"]):\n        return np.nan                          # SAS: implicitly missing (no assignment)\n    if row[\"lbstresn\"] < row[\"low_normal\"]:\n        return \"LOW\"\n    elif row[\"lbstresn\"] > row[\"high_normal\"]:\n        return \"HIGH\"\n    else:\n        return \"NORMAL\"\n\nlb_raw[\"lbnrind\"] = lb_raw.apply(compute_lbnrind, axis=1)\n\n# ---------------------------------------------------------------------------\n# SDTM required constant variables\n#   SAS: domain = 'LB'; studyid = 'BMN-999-001'; lbcat = 'HEMATOLOGY';\n# ---------------------------------------------------------------------------\nlb_raw[\"domain\"]  = \"LB\"\nlb_raw[\"studyid\"] = STUDY_ID\nlb_raw[\"lbcat\"]   = \"HEMATOLOGY\"\n\n# ---------------------------------------------------------------------------\n# Date standardization to ISO 8601\n#   SAS: lbdtc = put(collect_date, yymmdd10.);\n#   SAS yymmdd10. format \u2192 YYYY-MM-DD  (ISO 8601 character date)\n# ---------------------------------------------------------------------------\n# collect_date is assumed to be parseable by pandas (numeric SAS date or string)\nlb_raw[\"lbdtc\"] = pd.to_datetime(lb_raw[\"collect_date\"]).dt.strftime(\"%Y-%m-%d\")\n\n# ---------------------------------------------------------------------------\n# Variable labels (SAS LABEL statement)\n#   Python stores labels as column-level metadata in attrs for GxP traceability.\n#   SAS: label lbtestcd = '...' lbtest = '...' lbstresn = '...' lbnrind = '...';\n# ---------------------------------------------------------------------------\nCOLUMN_LABELS = {\n    \"lbtestcd\": \"Lab Test Short Name\",\n    \"lbtest\":   \"Lab Test Name\",\n    \"lbstresn\": \"Numeric Result/Finding in Standard Units\",\n    \"lbnrind\":  \"Reference Range Indicator\",\n}\n# Store in DataFrame attrs for downstream documentation / audit use\nlb_raw.attrs[\"column_labels\"] = COLUMN_LABELS\n\n# ---------------------------------------------------------------------------\n# KEEP \u2014 retain only SDTM LB domain variables\n#   SAS: keep studyid domain usubjid lbseq lbtestcd lbtest lbcat\n#             lborres lborresu lbstresn lbstresc lbstresu\n#             lbnrind lbdtc visitnum visit;\n#\n# lbseq is assigned in Step 2; placeholder column added here for ordering.\n# ---------------------------------------------------------------------------\nKEEP_VARS = [\n    \"studyid\", \"domain\", \"usubjid\", \"lbseq\",\n    \"lbtestcd\", \"lbtest\", \"lbcat\",\n    \"lborres\", \"lborresu\", \"lbstresn\", \"lbstresc\", \"lbstresu\",\n    \"lbnrind\", \"lbdtc\", \"visitnum\", \"visit\",\n]\n\n# Initialize lbseq as NaN placeholder; populated in Step 2\nlb_raw[\"lbseq\"] = np.nan\n\n# Validate all KEEP_VARS exist before subsetting \u2014 21 CFR Part 11 guard\nmissing_cols = [c for c in KEEP_VARS if c not in lb_raw.columns]\nif missing_cols:\n    raise KeyError(\n        f\"Expected SDTM LB columns missing from raw data: {missing_cols}. \"\n        \"Data cannot be silently subsetted. Resolve mapping before proceeding.\"\n    )\n\nlb_raw = lb_raw[KEEP_VARS].copy()   # SAS: keep statement \u2014 explicit column subset\n\nlog.info(\"lb_raw constructed: %d rows, %d columns\", len(lb_raw), len(lb_raw.columns))\n\n# ===========================================================================\n# Step 2: Assign sequence numbers (LBSEQ)\n#   SAS: proc sort data=lb_raw; by usubjid lbdtc lbtestcd; run;\n#   SAS: data sdtm.lb; set lb_raw; by usubjid;\n#        retain lbseq 0;\n#        if first.usubjid then lbseq = 0;\n#        lbseq + 1;\n# ===========================================================================\nlog.info(\"Step 2: Sorting and assigning LBSEQ sequence numbers\")\n\n# SAS: proc sort \u2014 sort by usubjid, lbdtc, lbtestcd\nlb_sorted = lb_raw.sort_values(\n    by=[\"usubjid\", \"lbdtc\", \"lbtestcd\"],\n    kind=\"mergesort\",                  # stable sort preserves SAS proc sort behavior\n    na_position=\"last\",\n).reset_index(drop=True)\n\n# SAS: retain lbseq 0; if first.usubjid then lbseq = 0; lbseq + 1;\n# cumcount() replicates SAS BY-group counter reset per usubjid, 1-based\nlb_sorted[\"lbseq\"] = (\n    lb_sorted.groupby(\"usubjid\").cumcount() + 1   # cumcount() is 0-based \u2192 +1\n).astype(int)\n\n# 21 CFR Part 11: verify no rows were added or dropped during sequence assignment\nassert len(lb_sorted) == input_row_count, (\n    f\"Row count mismatch after LBSEQ assignment: \"\n    f\"input={input_row_count}, output={len(lb_sorted)}. \"\n    \"Possible silent data modification detected.\"\n)\n\n# Final SDTM LB dataset \u2014 mirrors sdtm.lb SAS dataset\nsdtm_lb = lb_sorted.copy()\n\nlog.info(\"sdtm.lb final dataset: %d rows, %d columns\", len(sdtm_lb), len(sdtm_lb.columns))\n\n# ---------------------------------------------------------------------------\n# Write SDTM LB output\n#   SAS: data sdtm.lb \u2014 persisted to sdtm libname\n# ---------------------------------------------------------------------------\nsdtm_lb.to_csv(SDTM_LB_PATH, index=False)\nlog.info(\"sdtm.lb written to %s\", SDTM_LB_PATH)\n\n# ===========================================================================\n# Validation checks\n#   SAS: proc freq \u2014 lbtestcd * lbnrind cross-tabulation (list missing)\n#   SAS: proc means \u2014 n nmiss mean std min max by lbtestcd\n#\n# [REQUIRES_MANUAL_REVIEW: TFL output]\n#   PROC FREQ / PROC MEANS with ODS RTF titles are not directly translatable;\n#   the pandas equivalents below replicate the analytic content.\n#   Formatted RTF/PDF output must be produced via a validated TFL tool.\n# ===========================================================================\n\n# ---------------------------------------------------------------------------\n# Validation 1: PROC FREQ \u2014 lbtestcd * lbnrind (list missing)\n#   SAS: tables lbtestcd * lbnrind / list missing;\n#   'missing' option in SAS includes missing values in frequency counts.\n# ---------------------------------------------------------------------------\nlog.info(\"Validation: LB Domain \u2014 Test Code by Normal Range Flag\")\n\nfreq_table = (\n    sdtm_lb\n    .groupby(\n        [\"lbtestcd\", \"lbnrind\"],\n        dropna=False,              # SAS: / missing \u2014 include NaN cells in count\n        observed=True,\n    )\n    .size()\n    .reset_index(name=\"COUNT\")\n    .sort_values([\"lbtestcd\", \"lbnrind\"])\n)\n\n# SAS: title 'LB Domain \u2014 Test Code by Normal Range Flag'\nprint(\"\\n\" + \"=\" * 60)\nprint(\"LB Domain \u2014 Test Code by Normal Range Flag\")\nprint(\"=\" * 60)\nprint(freq_table.to_string(index=False))\nprint(\"=\" * 60 + \"\\n\")\n\n# ---------------------------------------------------------------------------\n# Validation 2: PROC MEANS \u2014 n nmiss mean std min max by lbtestcd\n#   SAS: class lbtestcd; var lbstresn;\n# ---------------------------------------------------------------------------\nlog.info(\"Validation: LB Domain \u2014 Numeric Results Summary\")\n\ndef proc_means_summary(series):\n    \"\"\"Replicate SAS PROC MEANS statistics: n nmiss mean std min max.\"\"\"\n    return pd.Series(\n        {\n            \"N\":     series.notna().sum(),          # SAS: n\n            \"NMISS\": series.isna().sum(),            # SAS: nmiss\n            \"MEAN\":  series.mean(),                  # SAS: mean\n            \"STD\":   series.std(ddof=1),             # SAS: std (ddof=1 matches SAS)\n            \"MIN\":   series.min(),                   # SAS: min\n            \"MAX\":   series.max(),                   # SAS: max\n        }\n    )\n\nmeans_table = (\n    sdtm_lb\n    .groupby(\"lbtestcd\", dropna=False, observed=True)[\"lbstresn\"]\n    .apply(proc_means_summary)\n    .reset_index()\n)\n\n# SAS: title 'LB Domain \u2014 Numeric Results Summary'\nprint(\"\\n\" + \"=\" * 60)\nprint(\"LB Domain \u2014 Numeric Results Summary\")\nprint(\"=\" * 60)\nprint(means_table.to_string(index=False))\nprint(\"=\" * 60 + \"\\n\")\n\nlog.info(\"sdtm_lb.py translation complete. Output: %s\", SDTM_LB_PATH)",
      "tfl_flagged": true
    }
  ],
  "report_paths": [
    "benchmarks/benchmark_results.csv",
    "reports/advs_validation.md",
    "reports/advs_translated.py",
    "reports/adtte_validation.md",
    "reports/adtte_translated.py",
    "reports/adae_merge_validation.md",
    "reports/adae_merge_translated.py",
    "reports/adlb_baseline_validation.md",
    "reports/adlb_baseline_translated.py",
    "reports/adcm_validation.md",
    "reports/adcm_translated.py",
    "reports/t_ae_summ_validation.md",
    "reports/t_ae_summ_translated.py",
    "reports/adsl_validation.md",
    "reports/adsl_translated.py",
    "reports/sdtm_lb_validation.md",
    "reports/sdtm_lb_translated.py",
    "reports/pipeline_summary.md"
  ],
  "stats": {
    "auto_approved": 0,
    "review_required": 6,
    "rejected": 2,
    "syntax_valid": 8,
    "tfl_flagged": 5,
    "avg_cosine": 0.6109,
    "avg_time_sec": 54.3,
    "total_sas_loc": 548,
    "total_py_loc": 1856
  }
}